participant_id,session,trial_num,trial_date_time,condition,error_color,error_position,rt_color,rt_location,chosen_color,chosen_position,true_RGB,chosen_RGB
e0010GP,Encoding,1,"2020,11,12,10,37,5.359",29,-0.0499749795092907,-0.284516484945906,6380.60042004065,13387.9300182455,-0.0371643562243106,0.012751026016301,"160,255,11","67,255,10"
e0010GP,Encoding,2,"2020,11,12,10,37,33.887",19,-0.0655061030389469,0.0077719945743958,4496.44296754451,9515.36972317314,0.0737897424934001,0.402773543061181,"254,173,7","251,255,10"
e0010GP,Encoding,3,"2020,11,12,10,37,56.358",1,-0.112247418283294,-0.010585037256367,3477.92323261228,9597.27120187813,-0.0503440424543427,0.438668878254425,"10,255,125","43,255,10"
e0010GP,Encoding,4,"2020,11,12,10,38,17.869",3,-0.0269210622891352,-0.0102610792550981,3963.883071282,9278.8821944867,0.248278250712852,0.363216862282208,"255,7,36","253,7,8"
e0010GP,Encoding,5,"2020,11,12,10,38,39.596",24,-0.261560639433692,0.395170035327554,4083.49701156498,20412.9465424647,-0.155086347418917,0.0754373919366229,"11,255,35","254,145,10"
e0010GP,Encoding,6,"2020,11,12,10,39,12.6",20,-0.00267379982570748,0.029761674097362,5129.66893499584,13028.8037520975,-0.153875507427037,0.0816454895893357,"10,255,116","12,255,115"
e0010GP,Encoding,7,"2020,11,12,10,39,39.188",11,-0.00377222568071189,-0.00386158320814805,2896.76834950762,8262.09581642547,-0.442290134240821,0.0388863690836397,"234,6,255","231,5,254"
e0010GP,Encoding,8,"2020,11,12,10,39,58.914",8,-0.00749141601952918,0.00362601480671502,3496.26614227077,9245.19976564056,-0.304234470512846,0.367368459498605,"255,6,66","255,7,79"
e0010GP,Encoding,9,"2020,11,12,10,40,20.118",10,-0.097737819689915,0.00644942981763943,10362.3645439227,13611.7981458858,0.0375382908250452,0.311762595174743,"255,179,11","205,255,9"
e0010GP,Encoding,10,"2020,11,12,10,40,52.604",30,-0.0358812387599636,-0.00946350888317071,2679.67852402796,8445.98325115703,0.412729351600814,0.00146505466878144,"222,6,255","254,6,249"
e0010GP,Encoding,11,"2020,11,12,10,41,12.266",22,-0.120106269209789,0.00782435120523477,4696.17253924025,8478.51910152815,0.444921625975974,0.237835379415198,"7,149,255","33,7,254"
e0010GP,Encoding,12,"2020,11,12,10,41,33.957",13,-0.0300679328391704,-0.00524529527679392,4246.50410862171,9411.93808124342,0.228232072756003,0.304483575039328,"254,7,17","255,26,7"
e0010GP,Encoding,13,"2020,11,12,10,41,55.966",16,-0.0204459671054571,-0.00836471829184447,3662.81648938195,8211.98828437264,0.224699737612173,0.0757732087840147,"255,10,6","255,30,6"
e0010GP,Encoding,14,"2020,11,12,10,42,16.266",6,0.0841569977062564,-0.000686115926890322,3596.17124897295,9395.25111241574,0.29498971952433,0.32913689830981,"254,49,7","255,6,63"
e0010GP,Encoding,15,"2020,11,12,10,42,37.716",23,-0.0176167841192758,-0.000888432088751469,3829.57064008406,8845.32685697332,0.194413551589224,0.0915661524082479,"255,47,8","253,76,6"
e0010GP,Encoding,16,"2020,11,12,10,42,58.849",4,-0.119799296822892,0.00369274574663588,3012.83346812715,8195.30219527258,0.343917580454419,0.458300118843796,"197,5,255","255,6,151"
e0010GP,Encoding,17,"2020,11,12,10,43,18.517",12,-0.0297277495593011,-0.0065200175114567,3629.57568385639,8445.49294956869,0.279721696958041,0.368167244023067,"6,255,254","6,223,255"
e0010GP,Encoding,18,"2020,11,12,10,43,39.047",28,-0.0327357468063628,0.00657120697271811,7229.45263927124,11512.2434640627,-0.24339584439851,0.0789406557394134,"253,50,7","255,10,6"
e0010GP,Encoding,19,"2020,11,12,10,44,6.166",27,-0.0161350224524136,0.00573922351472755,4646.61014513752,8962.00045393948,-0.261022333896403,0.155716991336219,"9,255,250","9,244,255"
e0010GP,Encoding,20,"2020,11,12,10,44,28.215",5,0.0250879347306225,-0.00824761446038228,3579.44791806563,8328.60030039774,0.411341222092188,0.0387487994194012,"254,6,221","255,5,250"
e0010GP,Encoding,21,"2020,11,12,10,44,48.646",17,-0.0943238546704017,0.00312633491190262,14845.9288839832,7428.62358385833,0.383941735645111,0.408575213511976,"171,6,254","255,5,214"
e0010GP,Encoding,22,"2020,11,12,10,45,19.332",7,-0.259032575017602,0.336060443842343,4579.68163239923,12294.9747606114,0.181009950362109,0.0789771704422782,"232,7,255","255,98,10"
e0010GP,Encoding,23,"2020,11,12,10,45,44.64",15,-0.0505893989115759,-0.00245950723659452,2813.29978247265,10645.1409998282,0.406320085632765,0.106130826504496,"210,5,254","255,7,243"
e0010GP,Encoding,24,"2020,11,12,10,46,6.496",9,-0.425168258564673,-0.00143949000008847,4812.97311024218,15628.3994878811,-0.417692140181548,0.0676937956823228,"121,255,8","255,7,255"
e0010GP,Encoding,25,"2020,11,12,10,46,35.429",2,-0.102899447306062,0.000426428498044191,3663.07073069606,9328.61701522461,-0.105063899970548,0.104518279240095,"130,255,10","12,255,34"
e0010GP,Encoding,26,"2020,11,12,10,46,56.862",14,-0.00935141217291986,-0.00242594696220594,4280.04607427351,8978.62261615774,-0.415226608033461,0.00377015824180593,"7,18,255","6,10,255"
e0010GP,Encoding,27,"2020,11,12,10,47,18.511",25,-0.126459525415313,0.0157587680754838,6146.14858132177,12145.1858659423,0.371207206843396,0.487077138481314,"133,6,255","255,6,194"
e0010GP,Encoding,28,"2020,11,12,10,47,45.262",18,-0.188420334439591,0.050844448587873,2429.32560658687,10245.2490303933,-0.455291931889371,0.448882415493657,"255,8,27","211,6,255"
e0010GP,Encoding,29,"2020,11,12,10,48,6.327",21,-0.00660561724738512,0.0161104223067827,3362.93695343238,7678.67915332658,-0.0663091623188538,0.116010571968434,"30,255,9","22,254,8"
e0010GP,Encoding,30,"2020,11,12,10,48,25.704",26,0.0549908128378581,0.00730697052623405,3096.16215845313,8395.22999895007,0.08485062292266,0.246841291670611,"192,253,9","255,248,9"
e0010GP,SameDayRecall,1,"2020,11,12,10,51,10.364",1,-0.0582373609611324,-0.42863181706966,7147.08842378013,5726.59176469278,-0.104354099776504,0.000547976071602285,"10,255,125","10,254,32"
e0010GP,SameDayRecall,2,"2020,11,12,10,51,31.976",2,-0.057784675123673,0.0139022804482606,3329.76623288255,7748.59199576804,0.0556202224591866,0.117994131190312,"130,255,10","233,255,8"
e0010GP,SameDayRecall,3,"2020,11,12,10,51,51.513",3,-0.386601406026463,-0.0429550959060052,6278.58279381576,5481.8544425957,-0.111402093024477,0.395910878933115,"255,7,36","8,255,42"
e0010GP,SameDayRecall,4,"2020,11,12,10,52,11.708",4,-0.407021935968094,-0.44892164159845,9296.91925213751,3795.61754833958,0.0566949413092168,0.00568573149871054,"197,5,255","234,254,9"
e0010GP,SameDayRecall,5,"2020,11,12,10,52,33.214",5,-0.324772149488848,0.113380219785194,3532.87513203259,5295.58441192853,-0.288974563149587,0.0663838059054107,"254,6,221","8,208,255"
e0010GP,SameDayRecall,6,"2020,11,12,10,52,50.472",6,0.191194094960917,-0.332003836724526,6846.32358849171,5145.98729790441,0.40202681677899,0.00355305434160635,"254,49,7","254,7,238"
e0010GP,SameDayRecall,7,"2020,11,12,10,53,10.81",7,-0.341512004346615,0.00278408316312689,3063.09993765672,7995.55796144796,0.0985305210330961,0.412253531121494,"232,7,255","254,234,10"
e0010GP,SameDayRecall,8,"2020,11,12,10,53,30.308",8,-0.0580485238765667,0.138290673369984,3229.97461105774,4628.74873979013,0.23869453061675,0.232703800935336,"255,6,66","254,15,8"
e0010GP,SameDayRecall,9,"2020,11,12,10,53,46.555",9,-0.0700569018534166,-0.0572442507678833,4329.93250142363,3512.37571646493,-0.0775330202365417,0.123498556450118,"121,255,8","11,255,10"
e0010GP,SameDayRecall,10,"2020,11,12,10,54,2.805",10,-0.268613158673854,-0.320451253063744,4929.71239354552,5628.97453657411,-0.133337048158894,0.00223922807136201,"255,179,11","10,253,76"
e0010GP,SameDayRecall,11,"2020,11,12,10,54,21.941",11,-0.486968210994479,-0.287032747297752,4630.31582812005,4428.69132289343,-0.0484503024343694,0.25200796142226,"234,6,255","46,254,10"
e0010GP,SameDayRecall,12,"2020,11,12,10,54,39.337",12,-0.191660664411911,0.307184484179712,3046.44698496782,6095.29914554969,-0.44165461181065,0.0544627423318986,"6,255,254","28,6,255"
e0010GP,SameDayRecall,13,"2020,11,12,10,54,56.854",13,-0.37016290914954,0.02532310474132,4329.38208510723,6678.67944656905,-0.371537085255287,0.335051975057442,"254,7,17","6,66,255"
e0010GP,SameDayRecall,14,"2020,11,12,10,55,16.22",14,-0.484442863767857,0.294879920419076,2046.37836620486,7078.73181969353,0.109681940371603,0.301076025623088,"7,18,255","255,220,8"
e0010GP,SameDayRecall,15,"2020,11,12,10,55,33.686",15,-0.0178621570423679,-0.108821846878584,9529.35710083966,4428.74909168108,0.439047327501973,0.0051505276106828,"210,5,254","233,7,255"
e0010GP,NextDayRecall,1,"2020,11,13,10,26,29.358",1,-0.214142847733597,0.360472948194325,4414.88408346203,4007.98240299625,-0.376734308471234,0.0676108928037332,"10,255,125","6,60,254"
e0010GP,NextDayRecall,2,"2020,11,13,10,26,46.536",2,-0.235857760246836,-0.0916179379648608,4713.34812848558,5869.52182998516,0.23369330758235,0.0124739127771903,"130,255,10","254,20,9"
e0010GP,NextDayRecall,3,"2020,11,13,10,27,5.548",3,-0.470571714365743,-0.395434446387128,5077.72264133349,4582.18787223697,-0.25422897263227,0.251609770585762,"255,7,36","7,251,255"
e0010GP,NextDayRecall,4,"2020,11,13,10,27,23.638",4,-0.123115561571377,0.188170404869373,6847.14787664737,5695.55611728129,-0.413167561151312,0.357222222033467,"197,5,255","6,11,254"
e0010GP,NextDayRecall,5,"2020,11,13,10,27,44.652",5,-0.333053130282526,0.140077102550033,4566.64445829861,4328.95675995547,-0.280693582355909,0.0930806886702499,"254,6,221","6,222,255"
e0010GP,NextDayRecall,6,"2020,11,13,10,28,2.056",6,-0.203806856655736,0.219893676298013,4646.22011034194,6295.54245209707,-0.414639578473809,0.108557106084907,"254,49,7","254,5,250"
e0010GP,NextDayRecall,7,"2020,11,13,10,28,21.343",7,-0.484672332013927,-0.451849117690918,5080.39908202804,5646.01806502162,-0.0446298066342157,0.133113268024461,"232,7,255","52,255,9"
e0010GP,NextDayRecall,8,"2020,11,13,10,28,40.46",8,-0.225819051057738,0.189246452080435,7046.13172651099,6028.75055056617,0.0709240034355787,0.181748022224885,"255,6,66","248,254,9"
e0010GP,NextDayRecall,9,"2020,11,13,10,29,1.878",9,-0.0668415671128874,-0.426493499525335,4413.31141429964,8045.40624012131,0.0593654487297623,0.492747805207569,"121,255,8","236,254,8"
e0010GP,NextDayRecall,10,"2020,11,13,10,29,22.726",10,-0.484808326774373,0.00769163718289493,5512.84322045578,11945.2600871639,-0.379915562710667,0.310520387809487,"255,179,11","8,52,252"
e0010GP,NextDayRecall,11,"2020,11,13,10,29,48.527",11,0.215816939117887,-0.28901264466415,3279.69347760171,3578.64254869173,0.345665152322004,0.253987858788659,"234,6,255","9,109,254"
e0010GP,NextDayRecall,12,"2020,11,13,10,30,3.74",12,0.21286040826957,-0.384758402869102,3512.82093388926,4895.32791456975,0.0371335391291695,0.0231111763574917,"6,255,254","67,255,10"
e0010GP,NextDayRecall,13,"2020,11,13,10,30,20.474",13,-0.18360062343208,-0.155753660161989,2963.09109985964,8362.04468691187,0.0746993821630938,0.153975210154133,"254,7,17","251,255,10"
e0010GP,NextDayRecall,14,"2020,11,13,10,30,40.174",14,-0.429324288581696,0.453811519685622,4146.2459158401,3928.68005463726,0.164800515557764,0.447615414481611,"7,18,255","255,127,7"
e0010GP,NextDayRecall,15,"2020,11,13,10,30,56.673",15,0.0992514022891154,-0.117313466452298,2946.78085208579,9562.31324003869,0.443839113166544,0.0136421471843965,"210,5,254","29,6,254"
e0010GP,NextDayRecall,16,"2020,11,13,10,31,17.542",16,-0.356053690015576,0.308750051468622,3429.70611643091,5312.17468210855,-0.110907985297945,0.224612124392763,"255,10,6","8,255,42"
e0010GP,NextDayRecall,17,"2020,11,13,10,31,34.622",17,-0.139705354637493,-0.337738737662959,3362.99479843268,4612.08559449119,0.338560235678019,0.250559713913162,"171,6,254","255,7,138"
e0010GP,NextDayRecall,18,"2020,11,13,10,31,50.99",18,-0.192227311080582,-0.350864267645658,5646.06439762048,10878.7203170792,0.0746442863691977,0.149408868272812,"255,8,27","251,255,10"
e0010GP,NextDayRecall,19,"2020,11,13,10,32,15.893",19,-0.287526852467859,0.288680326621033,4112.91576909474,2562.14051914793,-0.426822698000206,0.121865211014544,"254,173,7","246,8,253"
e0010GP,NextDayRecall,20,"2020,11,13,10,32,30.923",20,-0.00979409685126263,0.126447780670956,3896.38418052584,3678.75028664633,-0.166343404104007,0.0745639651789818,"10,255,116","9,255,133"
e0010GP,NextDayRecall,21,"2020,11,13,10,32,46.857",21,-0.0752672512691395,-0.34633452424079,10396.2481151723,5828.80779185285,0.0155637061976708,0.214213529965573,"30,255,9","166,254,10"
e0010GP,NextDayRecall,22,"2020,11,13,10,33,11.481",22,-0.0966926454249987,0.24431920978706,3663.07608575164,4328.74005242036,0.421508002191183,0.0013405208333729,"7,149,255","8,8,254"
e0010GP,NextDayRecall,23,"2020,11,13,10,33,27.89",23,-0.112079253722704,-0.382819496401028,3162.64472339145,3762.09324816739,0.099951081985796,0.292141776081532,"255,47,8","255,233,7"
e0010GP,NextDayRecall,24,"2020,11,13,10,33,43.206",24,-0.223004536304314,0.446029035484397,5263.0301636948,5428.77594552226,0.116530244289539,0.126296392093466,"11,255,35","255,211,9"
e0010GP,NextDayRecall,25,"2020,11,13,10,34,2.291",25,-0.148296438762851,0.260513642608405,5312.98667556575,4745.41028689259,-0.35403682897844,0.242322263948392,"133,6,255","6,96,255"
e0010GP,NextDayRecall,26,"2020,11,13,10,34,20.739",26,-0.484189920109594,0.356110533390498,4912.82580174459,3745.45691273579,-0.485950269805604,0.116576212246121,"192,253,9","103,6,255"
e0010GP,NextDayRecall,27,"2020,11,13,10,34,37.806",27,-0.340987331654363,0.07780432963886,4679.62943304735,7862.03119767424,0.414125356901647,0.227782097460351,"9,255,250","255,6,251"
e0010GP,NextDayRecall,28,"2020,11,13,10,34,58.772",28,-0.315878036782024,-0.0642371737967527,4879.72995719224,3078.79855465751,-0.473461865625828,0.00813227496994262,"253,50,7","78,7,254"
e0010GP,NextDayRecall,29,"2020,11,13,10,35,15.088",29,-0.201072830108595,-0.287194470535528,4679.69394679255,7511.99838363743,-0.188262206823614,0.010073040426679,"160,255,11","9,255,174"
e0010GP,NextDayRecall,30,"2020,11,13,10,35,35.622",30,-0.0654932352915495,-0.159516213196365,3012.89160576471,4295.41283811796,0.383117355069228,0.151517758981975,"222,6,255","255,6,213"
e0011XQ,Encoding,1,"2021,1,17,10,42,39.998",3,-0.0798553290591958,-0.00779421845413425,1863.77084355411,11237.6555926252,-0.0863033017352989,0.0672349386845626,"122,255,9","9,255,15"
e0011XQ,Encoding,2,"2021,1,17,10,43,1.989",17,0.0095189159700925,-0.00949736047506994,7363.04403351562,8098.80247159401,0.24315441424556,0.0613723226264423,"254,20,9","255,10,5"
e0011XQ,Encoding,3,"2021,1,17,10,43,26.093",24,0.0175965805926138,-0.0185975406863805,2945.0357422802,8997.49010808171,0.163167502869068,0.258075718781915,"255,159,10","255,129,8"
e0011XQ,Encoding,4,"2021,1,17,10,43,46.434",23,-0.014655015793495,-0.0277839129716701,6247.28051055286,7645.79234610528,-0.196674899223124,0.0822686071075094,"8,255,161","8,255,187"
e0011XQ,Encoding,5,"2021,1,17,10,44,8.747",1,-0.0305782330853169,0.00385179651796914,5383.49764391558,7746.91468625463,-0.186229548360401,0.107829222813684,"9,254,115","9,255,168"
e0011XQ,Encoding,6,"2021,1,17,10,44,30.366",9,-0.00359280742775859,-0.0149905403290973,4746.17658624788,8145.43825164424,-0.189479294946278,0.34167981171737,"9,255,168","8,255,176"
e0011XQ,Encoding,7,"2021,1,17,10,44,51.696",6,0.0353955355196028,0.00775622086534029,2129.528780182,7878.51554218094,0.422323437672761,0.370882683398955,"52,7,254","8,7,254"
e0011XQ,Encoding,8,"2021,1,17,10,45,10.087",2,-0.10868546215141,0.00721980967781563,3480.03332446751,7812.46922750517,-0.129298073565496,0.0335941131117881,"96,254,10","9,255,68"
e0011XQ,Encoding,9,"2021,1,17,10,45,29.713",30,-0.016529293380959,0.00266700588254062,3346.62753983958,9112.0105615455,-0.185794541589654,0.111185448728751,"9,255,195","9,255,168"
e0011XQ,Encoding,10,"2021,1,17,10,45,50.583",26,0.0663250017356541,-0.00937462364852979,3779.4136664919,7661.96456592127,0.0977661673772699,0.376881380039031,"194,255,11","255,235,9"
e0011XQ,Encoding,11,"2021,1,17,10,46,10.816",29,-0.0460146092765848,0.0152568129901754,7996.94613688075,8128.74288108844,-0.476376611188221,0.0701700123168502,"15,8,255","85,6,255"
e0011XQ,Encoding,12,"2021,1,17,10,46,35.267",11,-0.0596183090621331,0.0165034144780232,2263.08705269366,8428.53406066149,-0.207072278287769,0.116003887041264,"255,8,26","255,55,6"
e0011XQ,Encoding,13,"2021,1,17,10,46,54.355",16,-0.0222171806993543,-0.0281423844396316,3346.21201035623,7795.38941153464,-0.381668947612006,0.3877054521973,"9,21,255","8,50,255"
e0011XQ,Encoding,14,"2021,1,17,10,47,13.85",19,-0.082525294486495,-0.0120926758780449,3896.43462800427,8262.05834596976,-0.0146087159464304,0.149314737336515,"9,255,24","107,254,11"
e0011XQ,Encoding,15,"2021,1,17,10,47,34.365",14,-0.0171538266782314,-0.00785492149381356,3296.46928967338,8545.38728550153,-0.276068510496435,0.346570179114525,"8,246,255","7,228,255"
e0011XQ,Encoding,16,"2021,1,17,10,47,54.513",4,0.0387413598169084,0.0127925716623061,2496.31639124527,7761.88019906715,0.0492727235703201,0.207183350171587,"155,254,11","222,255,10"
e0011XQ,Encoding,17,"2021,1,17,10,48,13.165",8,-0.0474308607253996,0.0344327364012602,2196.8680161649,7945.38147923208,0.247049561409972,0.298254278523447,"10,255,195","6,255,252"
e0011XQ,Encoding,18,"2021,1,17,10,48,31.735",25,-0.0592856427825496,-0.0434624617093969,3613.05407718874,7362.40475738737,0.410696664857768,0.13059907932615,"186,6,255","255,5,250"
e0011XQ,Encoding,19,"2021,1,17,10,48,51.098",18,-0.0193264107848118,-0.00901502192815679,3279.73755662219,7078.76673664509,0.308872772739275,0.191197758004044,"7,207,255","6,177,255"
e0011XQ,Encoding,20,"2021,1,17,10,49,9.832",5,-0.00651741978652109,-0.0235715698016567,3279.41733206603,8295.39161087905,-0.209781721610224,0.189468153163389,"10,255,221","10,254,208"
e0011XQ,Encoding,21,"2021,1,17,10,49,29.78",13,0.0438820010564596,0.00459457627249786,2313.61156702701,7212.0390943744,0.250541683449762,0.420259163499503,"255,55,6","253,7,10"
e0011XQ,Encoding,22,"2021,1,17,10,49,47.615",7,0.00845153008511069,-0.00670406282518632,2712.7098944402,7662.08626298226,0.0737289586421413,0.277015474468462,"243,255,8","251,255,10"
e0011XQ,Encoding,23,"2021,1,17,10,50,6.348",12,-0.131496835741607,0.00416552067494954,3229.63912862565,7162.04652815873,-0.255847256179192,0.471776482876292,"8,42,254","7,250,255"
e0011XQ,Encoding,24,"2021,1,17,10,50,25.096",22,-0.0466997925835144,0.0221465872221581,5576.96195456628,7845.31951636723,0.302727012621322,0.181500970098473,"7,250,255","8,188,255"
e0011XQ,Encoding,25,"2021,1,17,10,50,46.897",10,-0.0279022881850183,-0.00169073377474449,4996.26873878151,7978.70975896058,0.0201443541441604,0.104016695611534,"121,255,8","173,255,12"
e0011XQ,Encoding,26,"2021,1,17,10,51,8.264",27,-0.0332356395696729,-0.028404801717726,3129.53141939533,8245.36825384075,-0.247406889811832,0.317372007240908,"6,222,255","6,255,253"
e0011XQ,Encoding,27,"2021,1,17,10,51,27.996",20,-0.00248071420404298,0.0100045790188036,6396.07437537893,11395.318973862,-0.185708989496844,0.02299153041682,"9,255,165","9,255,168"
e0011XQ,Encoding,28,"2021,1,17,10,51,54.164",15,-0.143123268705898,0.00736375593299271,4279.85778745347,8028.68121146912,-0.134615370659517,0.0762647277597582,"152,255,9","7,254,77"
e0011XQ,Encoding,29,"2021,1,17,10,52,14.831",28,-0.0384769666175696,0.0112605770457002,4446.7068042145,7078.75793926701,0.367699815546743,0.166720852011018,"8,141,255","8,70,255"
e0011XQ,Encoding,30,"2021,1,17,10,52,34.713",21,0.0837175555917167,0.00493812906266708,2929.86378433284,9262.03195383596,0.357132446717537,0.226971741291623,"27,6,255","6,91,253"
e0011XQ,SameDayRecall,1,"2021,1,17,10,54,5.823",1,-0.0960813578263799,-0.0580182742545608,5313.72124100517,11593.5887055743,-0.0595699574487042,0.0459591520411543,"9,254,115","30,255,9"
e0011XQ,SameDayRecall,2,"2021,1,17,10,54,31.415",2,-0.282994199357755,-0.0781505345519931,3346.80143467654,4232.07336309383,0.303606810771841,0.118964457341597,"96,254,10","4,187,255"
e0011XQ,SameDayRecall,3,"2021,1,17,10,54,47.434",3,-0.242144556597742,-0.488936658876152,6228.20603576361,5115.31163098402,0.235696583921639,0.45162262089342,"122,255,9","255,18,7"
e0011XQ,SameDayRecall,4,"2021,1,17,10,55,7.178",4,0.201846509906864,0.0369152953735429,7013.73827859379,4295.61828998339,0.191315146153452,0.18306062646035,"155,254,11","8,254,178"
e0011XQ,SameDayRecall,5,"2021,1,17,10,55,26.834",5,-0.00353273182250923,-0.0724102999421498,6083.12671713838,3579.13520015654,0.219831873219254,0.140629423022896,"10,255,221","7,255,224"
e0011XQ,SameDayRecall,6,"2021,1,17,10,55,44.888",6,-0.303984966093865,0.255696325692096,6813.202635577,10745.7848096849,-0.153734007098499,0.1229425785722,"52,7,254","11,255,113"
e0011XQ,SameDayRecall,7,"2021,1,17,10,56,10.814",7,-0.0232078325282353,-0.303948177847806,8712.79669523574,3578.99150965068,0.0420695960287953,0.425740410508919,"243,255,8","211,255,11"
e0011XQ,SameDayRecall,8,"2021,1,17,10,56,31.429",8,-0.0368811574344832,-0.157956991321132,2379.96754940536,4478.8685516321,-0.162737543250089,0.105864550801055,"10,255,195","10,255,125"
e0011XQ,SameDayRecall,9,"2021,1,17,10,56,46.679",9,-0.392228105050824,0.185302800775218,3579.87417990125,4195.47421825769,0.206341617532305,0.141386470613055,"9,255,168","255,56,7"
e0011XQ,SameDayRecall,10,"2021,1,17,10,57,2.777",10,-0.358667253127602,0.0295037167944623,5229.84469402286,8745.41707928802,-0.36642518716846,0.13521114618074,"121,255,8","9,74,254"
e0011XQ,SameDayRecall,11,"2021,1,17,10,57,25.128",11,0.425805776227127,-0.251414498449308,2697.00012345652,3629.07586184247,0.307503636422971,0.118907196930021,"255,8,26","7,181,254"
e0011XQ,SameDayRecall,12,"2021,1,17,10,57,39.811",12,-0.219180343020982,-0.142972319062297,3863.25619694639,4045.43552445716,-0.168163748899817,0.324638643139046,"8,42,254","9,255,138"
e0011XQ,SameDayRecall,13,"2021,1,17,10,57,56.043",13,-0.463560042269271,-0.273218195949266,8629.46881138919,3695.5341870505,-0.329780275337426,0.142446391277739,"255,55,6","6,139,255"
e0011XQ,SameDayRecall,14,"2021,1,17,10,58,16.711",14,-0.0876558282845179,0.26264290555514,3646.53777726039,12945.2424806611,0.346570512102722,0.0760723520655711,"8,246,255","7,108,255"
e0011XQ,SameDayRecall,15,"2021,1,17,10,58,41.619",15,-0.206830296895385,-0.302429017309455,3529.86724463494,3128.74610679364,-0.198322398849005,0.386057501002206,"152,255,9","9,255,190"
e0011XQ,NextDayRecall,1,"2021,1,18,13,55,56.957",1,-0.283236290447351,0.1653681893063,6080.42826808657,9893.51712424269,0.438887605722435,0.0613907630105846,"9,254,115","27,5,254"
e0011XQ,NextDayRecall,2,"2021,1,18,13,56,21.75",2,-0.397741177359183,-0.39564297353691,1079.96112731945,6615.53552425187,0.377128565945097,0.436456896326514,"96,254,10","255,6,207"
e0011XQ,NextDayRecall,3,"2021,1,18,13,56,37.992",3,-0.0675628814380625,-0.232462017960432,6428.2390552554,6565.57844079379,0.0611149087619596,0.291902738190861,"122,255,9","236,255,8"
e0011XQ,NextDayRecall,4,"2021,1,18,13,56,59.402",4,-0.183917773285643,-0.425237368798923,7947.04183769017,8162.25443952345,-0.173386409532231,0.20526144696503,"155,254,11","8,255,149"
e0011XQ,NextDayRecall,5,"2021,1,18,13,57,23.944",5,-0.242002230962515,-0.078454891897049,2349.76585778685,7195.83139180088,0.45830137235926,0.134584831067997,"10,255,221","55,6,255"
e0011XQ,NextDayRecall,6,"2021,1,18,13,57,41.963",6,-0.36947450329601,-0.0257956336122775,4646.40552334572,6878.83400726139,-0.0882444698963541,0.404434537876573,"52,7,254","8,255,16"
e0011XQ,NextDayRecall,7,"2021,1,18,13,58,1.836",7,-0.0341509730140643,-0.0819778546955633,3146.29130405586,8778.72072635842,0.0311264555429664,0.352289266338839,"243,255,8","194,255,11"
e0011XQ,NextDayRecall,8,"2021,1,18,13,58,22.164",8,-0.261141691145068,0.23184703079275,7163.08139304715,5462.13681858075,0.0615229904604959,0.495668572914937,"10,255,195","238,255,9"
e0011XQ,NextDayRecall,9,"2021,1,18,13,58,43.217",9,-0.412449949979504,-0.062077294287611,6080.4927821913,6895.42058357699,0.226563462460985,0.388766565675884,"9,255,168","253,26,7"
e0011XQ,NextDayRecall,10,"2021,1,18,13,59,4.585",10,-0.316926632210572,0.236074351783976,10596.2853951503,4528.76112098539,-0.32468456625143,0.341781781170254,"121,255,8","7,149,255"
e0011XQ,NextDayRecall,11,"2021,1,18,13,59,28.099",11,-0.497856876099173,-0.443917445778451,4796.11812767166,8045.45517193446,-0.235452536550925,0.423575252702262,"255,8,26","8,255,244"
e0011XQ,NextDayRecall,12,"2021,1,18,13,59,49.306",12,-0.367723836639201,-0.106783921444169,5679.72119349923,5628.71018416723,-0.0196202552815981,0.360827040757173,"8,42,254","95,255,9"
e0011XQ,NextDayRecall,13,"2021,1,18,14,0,8.966",13,0.359351054413338,0.449439134645437,7562.99259817956,4128.97395888172,0.433989263193359,0.134896278127557,"255,55,6","19,7,255"
e0011XQ,NextDayRecall,14,"2021,1,18,14,0,29.016",14,0.135576221856376,-0.343844776429198,9562.97295070215,5228.80631018324,0.123338461961827,0.317439965950091,"8,246,255","8,255,59"
e0011XQ,NextDayRecall,15,"2021,1,18,14,0,52.167",15,0.0495869609436069,-0.436397833712833,3262.86125332729,3495.53166513545,0.0580948589899874,0.352769350020082,"152,255,9","235,254,7"
e0011XQ,NextDayRecall,16,"2021,1,18,14,1,7.248",16,-0.371531758885873,-0.28145169382678,2646.40435036199,9096.06766004708,-0.0323543694254872,0.134396142810152,"9,21,255","74,255,12"
e0011XQ,NextDayRecall,17,"2021,1,18,14,1,27.402",17,0.3478420785279,-0.147280976263885,3829.87044101549,2345.52933383031,0.418522423196632,0.0954060141125128,"254,20,9","6,6,254"
e0011XQ,NextDayRecall,18,"2021,1,18,14,1,41.913",18,-0.0845428104297279,0.466878359534083,6930.40511632034,5512.09683449815,-0.205003551524735,0.332908860533716,"7,207,255","6,255,201"
e0011XQ,NextDayRecall,19,"2021,1,18,14,2,2.707",19,-0.00807922158737295,0.24474001501312,8129.39711275919,9195.38360526519,-0.0890547888455525,0.0833326017985602,"9,255,24","8,255,16"
e0011XQ,NextDayRecall,20,"2021,1,18,14,2,28.449",20,-0.27282699361876,-0.3639686542424,3196.24310908717,7062.05846326816,0.456055268911562,0.330972544806776,"9,255,165","51,6,255"
e0011XQ,NextDayRecall,21,"2021,1,18,14,2,47.097",21,-0.155683559355534,-0.408080249916021,2962.93254141301,4178.61756244008,-0.28516644295372,0.360009879729689,"27,6,255","7,215,254"
e0011XQ,NextDayRecall,22,"2021,1,18,14,3,2.604",22,-0.22332501996185,-0.476221911513087,2546.18755364561,3878.79060686362,0.479352239999657,0.272574354192456,"7,250,255","91,6,255"
e0011XQ,NextDayRecall,23,"2021,1,18,14,3,17.397",23,-0.405104513012264,0.259749286815175,2062.85140026398,2312.13478052155,0.223084629582635,0.369801806894355,"8,255,161","255,32,6"
e0011XQ,NextDayRecall,24,"2021,1,18,14,3,30.071",24,-0.498662265142904,-0.194330801791345,8163.03535343604,4545.49637298771,-0.35309134286645,0.43380897988688,"255,159,10","6,98,254"
e0011XQ,NextDayRecall,25,"2021,1,18,14,3,51.143",25,-0.433379190065056,-0.0566126003506304,2362.46575254097,6145.79689141715,-0.0966385022946267,0.117448940684917,"186,6,255","9,255,23"
e0011XQ,NextDayRecall,26,"2021,1,18,14,4,8.046",26,0.460970466399587,-0.136552219816041,5029.56622768727,3445.49980396516,0.492411632041203,0.24970378387152,"194,255,11","144,7,255"
e0011XQ,NextDayRecall,27,"2021,1,18,14,4,24.912",27,-0.412964749090616,-0.319135145478675,4396.44503823479,3645.4841446324,0.132322219709111,0.391897648998143,"6,222,255","252,185,7"
e0011XQ,NextDayRecall,28,"2021,1,18,14,4,41.295",28,-0.144787618410556,-0.119987831185287,6379.78456394478,5645.40614121495,-0.184435230518618,0.297969260242005,"8,141,255","8,255,167"
e0011XQ,NextDayRecall,29,"2021,1,18,14,5,1.8",29,-0.000107823193922241,0.204621913005074,3479.61691524642,2712.1468622538,0.430469825105559,0.259535112331748,"15,8,255","15,8,255"
e0011XQ,NextDayRecall,30,"2021,1,18,14,5,16.345",30,-0.0517741951372874,-0.32229870077343,7413.02897533706,4728.85836133594,-0.150549639833326,0.208446246162138,"9,255,195","9,254,104"
e0017MC,Encoding,1,"2023,3,1,11,30,50.729",13,0.0428844666618485,0.00217651989971645,2248.65539015462,7888.39027159639,0.275903209293396,0.241109861969891,"254,20,9","255,6,36"
e0017MC,Encoding,2,"2023,3,1,11,31,7.942",9,-0.0212413519594273,-0.0458382372871577,2613.20220509856,8180.35234774851,-0.39700059404799,0.379840091028763,"255,7,255","255,5,232"
e0017MC,Encoding,3,"2023,3,1,11,31,25.541",10,0.0663350874812318,0.0308531648686316,1927.82258099987,7346.95054128957,0.065013061082294,0.0799999959873529,"9,255,70","22,254,8"
e0017MC,Encoding,4,"2023,3,1,11,31,41.54",12,-0.105245715459444,0.0296887671507666,1629.85510382839,6895.32438520075,0.323406552704413,0.35116897797178,"10,255,220","5,152,255"
e0017MC,Encoding,5,"2023,3,1,11,31,56.741",3,-0.107057088601458,0.00719360730120714,2181.95582119807,7212.69776196982,0.0160694097045244,0.0399442388868219,"9,255,19","166,254,10"
e0017MC,Encoding,6,"2023,3,1,11,32,12.873",4,-0.0325590799419651,0.0186613639473558,2946.01297265154,7278.32903286912,-0.289257337457466,0.499126981240235,"255,7,15","255,8,52"
e0017MC,Encoding,7,"2023,3,1,11,32,29.772",29,-0.0107205768378259,-0.0157080629957713,3045.50515718466,6778.41040885346,-0.258276505780173,0.491329516102726,"8,238,253","7,247,255"
e0017MC,Encoding,8,"2023,3,1,11,32,46.255",5,0.0310632760901958,0.00638238099191913,3279.40847430443,6695.28813989746,0.0903113997408898,0.167825221758435,"236,254,8","255,243,8"
e0017MC,Encoding,9,"2023,3,1,11,33,2.888",8,-0.0145049900235686,0.0298789636822591,3629.27916713221,7228.69378788931,-0.0106056440682355,0.0510885700625309,"88,254,10","115,255,10"
e0017MC,Encoding,10,"2023,3,1,11,33,20.404",1,-0.04087105029873,-0.0152009923400922,4345.67638398556,6761.68009297095,-0.24544279923487,0.301923320574062,"8,253,201","8,255,251"
e0017MC,Encoding,11,"2023,3,1,11,33,38.221",14,-0.307240047730475,0.162246345237857,1295.78542780456,16228.315206283,-0.260754144020801,0.265891391990129,"51,255,10","254,7,17"
e0017MC,Encoding,12,"2023,3,1,11,34,2.421",21,-0.00976520448969809,0.00479958195920669,2228.73337620604,7278.42433807598,-0.30992715703389,0.0688045801640324,"253,8,71","255,6,88"
e0017MC,Encoding,13,"2023,3,1,11,34,18.554",28,0.0568595383764594,-0.00885653238391925,1795.63103336943,6695.03653415137,0.0892008843762029,0.300324792406835,"194,255,10","255,243,7"
e0017MC,Encoding,14,"2023,3,1,11,34,33.704",20,-0.023189205863523,0.022427651936443,2245.59653288452,6728.39306330582,-0.0416900229432067,0.385840445853317,"22,254,8","57,255,10"
e0017MC,Encoding,15,"2023,3,1,11,34,49.37",11,-0.0925806417541513,-0.0139389097565306,2378.84670142819,7363.08556618769,-0.306182123229865,0.199619072632804,"255,43,9","253,6,84"
e0017MC,Encoding,16,"2023,3,1,11,35,5.887",2,-0.0384136198402661,0.00981953676859398,2945.63087208371,7211.86963303399,-0.0804221575922853,0.083579522993249,"57,255,10","10,254,9"
e0017MC,Encoding,17,"2023,3,1,11,35,22.737",23,-0.170397725533732,-0.398757819391958,2095.7966884813,13630.1533358142,-0.255964840430843,0.0101949030820199,"248,6,253","255,7,15"
e0017MC,Encoding,18,"2023,3,1,11,35,45.269",30,0.00751426762958225,0.0092641519554689,2362.19790815335,6595.13087164385,0.282668313782655,0.00499117645218647,"255,7,36","255,7,41"
e0017MC,Encoding,19,"2023,3,1,11,36,0.903",22,-0.0488980144144572,-0.00312218791922647,2978.76042822247,6795.04717900988,-0.407974993408476,0.434966988606299,"210,5,254","255,7,244"
e0017MC,Encoding,20,"2023,3,1,11,36,17.351",16,-0.0225245740503203,-0.0126969429858927,2395.48787028639,7462.1226317023,-0.0372598671625246,0.418166644331307,"107,254,11","65,255,9"
e0017MC,Encoding,21,"2023,3,1,11,36,33.951",19,0.0288779454817058,0.00129011286744994,1712.17534281288,6878.54333762357,0.243196014130944,0.196822944881133,"255,43,9","255,10,5"
e0017MC,Encoding,22,"2023,3,1,11,36,49.251",6,-0.0570963275516873,-0.0167109252739094,2345.84939959189,6945.15493254301,-0.289969484341708,0.32997956271977,"7,255,237","6,207,255"
e0017MC,Encoding,23,"2023,3,1,11,37,5.25",17,-0.0582827162529234,-0.00883634148337466,2828.35942789893,7678.48891101926,-0.285190683252514,0.184303108946796,"8,114,255","7,215,254"
e0017MC,Encoding,24,"2023,3,1,11,37,22.417",15,-0.0706459180137703,-0.0389329112980775,1179.03566965992,6595.14553398344,-0.0865838352140094,0.336136027027643,"106,255,11","9,255,15"
e0017MC,Encoding,25,"2023,3,1,11,37,36.833",25,-0.0750798737229032,-0.0265848572027127,3129.10131295382,6228.33544031152,-0.0262866398754652,0.472934379257375,"220,255,10","84,255,9"
e0017MC,Encoding,26,"2023,3,1,11,37,52.849",7,0.00547540354068122,-0.00203460893537539,2145.59849763805,6378.45404397581,0.17072116014977,0.420560517600707,"255,127,7","255,115,9"
e0017MC,Encoding,27,"2023,3,1,11,38,8.083",26,-0.0633890170567705,0.00372240698788303,1628.81613045022,7278.58884952548,-0.246933233816779,0.150773708046442,"7,175,254","6,255,252"
e0017MC,Encoding,28,"2023,3,1,11,38,23.699",27,-0.0223935103629719,-0.0145819025924641,2712.08560929495,6328.38362075916,-0.275468614607473,0.432427665791592,"7,195,254","7,229,255"
e0017MC,Encoding,29,"2023,3,1,11,38,39.398",18,-0.0363384415444546,-0.0107960132996972,3812.34844639323,6495.19265874255,-0.0112958871222247,0.36087476515293,"186,255,10","114,254,9"
e0017MC,Encoding,30,"2023,3,1,11,38,56.365",24,-0.0359570175988443,-0.0172211331565249,3112.67890620116,6328.50531817724,0.417362481550584,0.287386524914162,"8,50,255","8,8,254"
e0017MC,SameDayRecall,1,"2023,3,1,11,39,45.085",6,-0.0139481179455121,-0.0787667876769179,3432.5299251019,4138.37700217914,-0.246821274735533,0.392035425122779,"7,255,237","6,255,252"
e0017MC,SameDayRecall,2,"2023,3,1,11,39,59.749",9,-0.0120459342722276,-0.132987300940562,1946.61383532491,1980.88852017986,-0.406196011735189,0.466989154682167,"255,7,255","255,6,242"
e0017MC,SameDayRecall,3,"2023,3,1,11,40,10.415",8,-0.316544964132743,0.0584342078186461,2145.0905941972,1864.45722804956,-0.341655598224548,0.0372246014383742,"88,254,10","6,119,253"
e0017MC,SameDayRecall,4,"2023,3,1,11,40,21.132",21,-0.0617639644126583,-0.0823660974807977,2713.45037985725,1745.55327898292,0.238397988131533,0.00876193535755865,"253,8,71","254,17,6"
e0017MC,SameDayRecall,5,"2023,3,1,11,40,32.266",14,-0.060291186209189,0.271672739879898,1631.99991085298,1561.96436640948,0.106777089918863,0.156464997348089,"51,255,10","11,255,35"
e0017MC,SameDayRecall,6,"2023,3,1,11,40,42.164",28,0.209855668413022,0.275612024209229,3495.59587307931,4228.43221175231,0.177514322413278,0.415206651000017,"194,255,10","9,255,154"
e0017MC,SameDayRecall,7,"2023,3,1,11,40,56.614",15,-0.491576532812648,-0.222045600186006,4546.23255584806,2245.06253047934,-0.492485549987113,0.480751284084429,"106,255,11","144,7,255"
e0017MC,SameDayRecall,8,"2023,3,1,11,41,10.08",30,0.136956615347721,-0.240699151235265,4229.11195781239,3111.68304010118,0.412110661500793,0.25495447964292,"255,7,36","254,6,249"
e0017MC,SameDayRecall,9,"2023,3,1,11,41,24.08",22,0.12414362275007,0.0396242547230625,1928.89146555069,2245.20827413414,0.418983369426996,0.477713431248588,"210,5,254","6,6,254"
e0017MC,SameDayRecall,10,"2023,3,1,11,41,34.93",29,-0.451789198186408,-0.030314746958846,4528.80020714952,2995.17667679254,0.279213719195593,0.476722832139651,"8,238,253","255,5,41"
e0017MC,SameDayRecall,11,"2023,3,1,11,41,49.129",2,-0.0317585807305092,-0.341820554467828,1695.89105529849,2712.31346205116,-0.0737671184825284,0.248421494705985,"57,255,10","15,255,10"
e0017MC,SameDayRecall,12,"2023,3,1,11,42,0.146",17,-0.0747863178754155,-0.170519117222163,2279.16801193635,2978.99649188866,0.418259717380852,0.022620333208007,"8,114,255","7,7,254"
e0017MC,SameDayRecall,13,"2023,3,1,11,42,12.046",18,0.0289046029867372,-0.396202214511219,4678.70884611205,1345.03036130639,0.00386204856450745,0.253719033635548,"186,255,10","129,254,8"
e0017MC,SameDayRecall,14,"2023,3,1,11,42,24.712",24,-0.209849839081479,-0.281436908815818,2262.15236692678,3578.43076018071,-0.408744696966781,0.0112715170581816,"8,50,255","254,6,246"
e0017MC,SameDayRecall,15,"2023,3,1,11,42,37.18",3,-0.0259610089263706,0.428126199860944,2462.25166029001,2695.22655807157,-0.116948687823304,0.39537556827533,"9,255,19","7,253,49"
e0017MC,SameDayRecall,16,"2023,3,1,11,42,48.979",1,-0.464806094462902,-0.466963639605972,2279.21639765668,1395.52071392689,0.260234345526762,0.246314032160059,"8,253,201","254,7,16"
e0017MC,SameDayRecall,17,"2023,3,1,11,42,59.312",11,0.0446252489665466,0.0342170398786833,1645.59160633849,1995.23620589082,0.258226730442261,0.247775022268018,"255,43,9","254,7,17"
e0017MC,SameDayRecall,18,"2023,3,1,11,43,9.562",26,-0.188047061199169,-0.163077577963547,6628.89823955163,3095.19435957395,-0.498369312072719,0.00858146292922157,"7,175,254","126,7,253"
e0017MC,SameDayRecall,19,"2023,3,1,11,43,25.929",23,-0.426663744595535,0.460948051646547,1678.7710144315,3611.94241688713,-0.000301178630960463,0.130099225879476,"248,6,253","134,254,10"
e0017MC,SameDayRecall,20,"2023,3,1,11,43,37.879",16,-0.282972168625078,-0.407284869000259,2928.89087905701,1411.84576274509,0.268236875512873,0.00181516765484446,"107,254,11","255,6,28"
e0017MC,SameDayRecall,21,"2023,3,1,11,43,48.845",5,-0.208145764503446,-0.33819672054134,2495.50144761292,2145.08766172935,-0.26739388815414,0.487595676708307,"236,254,8","255,8,27"
e0017MC,SameDayRecall,22,"2023,3,1,11,44,0.112",13,-0.30859105266428,-0.0136673970703882,1445.55770700958,1944.8983416014,-0.0755723100327321,0.256953778939996,"254,20,9","11,254,9"
e0017MC,SameDayRecall,23,"2023,3,1,11,44,10.145",4,-0.0341066688394492,0.011986641398818,1712.46770986272,1244.99567021121,0.222591588676052,0.492452258691697,"255,7,15","255,33,7"
e0017MC,SameDayRecall,24,"2023,3,1,11,44,19.778",27,-0.0997434891722458,-0.092907298153592,2445.43043790259,1711.87711082689,0.39760561414269,0.48924693864728,"7,195,254","6,29,254"
e0017MC,SameDayRecall,25,"2023,3,1,11,44,30.578",7,0.333836697479172,-0.427616285584325,1712.36683296684,1795.24863955476,0.49908245408826,0.00909037691899273,"255,127,7","131,6,254"
e0017MC,SameDayRecall,26,"2023,3,1,11,44,40.711",10,-0.0860281297259951,0.061408963749814,2178.71016572258,1428.28459131806,-0.0453200188375307,0.0122621326310927,"9,255,70","50,255,8"
e0017MC,SameDayRecall,27,"2023,3,1,11,44,50.928",25,0.133350815891914,-0.251169561871756,1745.44712364491,1828.39579050096,0.182144049739352,0.248349674588332,"220,255,10","254,96,7"
e0017MC,SameDayRecall,28,"2023,3,1,11,45,1.128",19,-0.314962569673157,0.444460251274699,1429.06990622259,2111.7654424495,-0.470719361677605,0.248927419261016,"255,43,9","73,7,253"
e0017MC,SameDayRecall,29,"2023,3,1,11,45,11.328",12,-0.205573026837822,0.242727991059449,1795.75155780026,1128.40925052865,0.423733864082791,0.435791798119538,"10,255,220","10,6,255"
e0017MC,SameDayRecall,30,"2023,3,1,11,45,20.877",20,-0.343246287136214,-0.357745105949124,2445.48146284387,1428.53590381742,-0.408125515942944,0.00566768796775008,"22,254,8","6,15,254"
e0017MC,NextDayRecall,1,"2023,3,2,11,12,32.516",12,-0.0784667379040408,-0.307296679335579,3599.20729527635,4273.11305220936,-0.139694099340928,0.0141835314854338,"10,255,220","13,255,86"
e0017MC,NextDayRecall,2,"2023,3,2,11,12,47.837",5,-0.206280854723994,-0.188917673010161,1913.50656594226,1897.82314110126,-0.1470327310733,0.0147100702598078,"236,254,8","8,255,97"
e0017MC,NextDayRecall,3,"2023,3,2,11,12,58.337",26,-0.00273335260877309,-0.0928242396164627,2761.70443245456,3497.69493360453,-0.313055603482323,0.247320354650788,"7,175,254","6,170,255"
e0017MC,NextDayRecall,4,"2023,3,2,11,13,11.303",8,-0.157008949830353,0.461239505381912,2246.43023350949,1845.24281860604,0.131898315738549,0.482449111762184,"88,254,10","252,185,7"
e0017MC,NextDayRecall,5,"2023,3,2,11,13,22.039",21,0.278733362664566,-0.0850851426234036,3282.389621175,1928.83545541373,0.421104684791243,0.0114809805001644,"253,8,71","7,8,254"
e0017MC,NextDayRecall,6,"2023,3,2,11,13,33.92",17,-0.328974642899798,0.194533134058114,3079.81033970587,2045.53213588939,-0.327551957594765,0.00139368362794381,"8,114,255","254,7,121"
e0017MC,NextDayRecall,7,"2023,3,2,11,13,45.669",4,-0.40037036972123,0.0141485309559758,1695.72155865362,1628.67331926336,-0.342931372763269,0.494614148248855,"255,7,15","8,116,255"
e0017MC,NextDayRecall,8,"2023,3,2,11,13,55.602",23,0.487788059587991,-0.134854291275516,2445.99024602526,1661.97823698269,0.0858493744474349,0.274098431198461,"248,6,253","10,255,14"
e0017MC,NextDayRecall,9,"2023,3,2,11,14,6.319",14,-0.258968194982655,-0.113885519122078,1679.23463760708,1495.26245147865,0.212482291272981,0.457976743649935,"51,255,10","255,45,8"
e0017MC,NextDayRecall,10,"2023,3,2,11,14,16.102",27,-0.47608647626988,-0.437716131193281,2179.59078583395,2811.7645920336,-0.178224351299436,0.019870367994153,"7,195,254","253,103,8"
e0017MC,NextDayRecall,11,"2023,3,2,11,14,27.702",28,-0.405373907309472,0.29918561185431,1495.69528374118,2728.54995033865,-0.373032561309729,0.391633063354936,"194,255,10","6,65,255"
e0017MC,NextDayRecall,12,"2023,3,2,11,14,38.569",9,-0.314756573628396,-0.344892857993777,1795.25186526951,1612.24270160056,0.103485372379021,0.0108910042521715,"255,7,255","255,229,9"
e0017MC,NextDayRecall,13,"2023,3,2,11,14,48.635",3,-0.32408325621711,0.214073431134547,2762.35895929059,2428.57842460199,0.233095577320176,0.246824062720162,"9,255,19","254,20,9"
e0017MC,NextDayRecall,14,"2023,3,2,11,15,0.485",11,0.0184918879173157,-0.202690566826786,2179.06382135172,1845.23314146196,0.23209336939303,0.0108674155625487,"255,43,9","255,21,10"
e0017MC,NextDayRecall,15,"2023,3,2,11,15,11.118",18,0.209691911390813,-0.350893630097177,2679.05341109065,2178.53802985664,0.234734465813043,0.000814878243944106,"186,255,10","255,18,8"
e0017MC,NextDayRecall,16,"2023,3,2,11,15,22.618",25,-0.0592800204404278,0.256704856237054,1495.67006451724,1095.17940398763,-0.0104867865929898,0.243775907302859,"220,255,10","115,255,10"
e0017MC,NextDayRecall,17,"2023,3,2,11,15,31.835",29,-0.194765500633211,-0.239284416718178,3179.09402577112,1978.48594922667,-0.0742315819847879,0.26775316238032,"8,238,253","15,255,10"
e0017MC,NextDayRecall,18,"2023,3,2,11,15,43.635",6,-0.157617243820457,-0.323968194590213,2245.77629316704,1878.71840595736,0.390490400610478,0.0106995571443528,"7,255,237","8,36,255"
e0017MC,NextDayRecall,19,"2023,3,2,11,15,54.401",16,-0.371272682851925,-0.42535627804764,3262.25177758872,2178.57644518617,-0.386007975964129,0.0198865767022255,"107,254,11","6,44,255"
e0017MC,NextDayRecall,20,"2023,3,2,11,16,6.484",7,-0.449579169701695,-0.315144413420512,3362.45948429036,2145.25803811446,-0.385175073689216,0.266329677914156,"255,127,7","5,45,254"
e0017MC,NextDayRecall,21,"2023,3,2,11,16,18.618",20,-0.216110218679667,0.134089638836743,3729.34025043864,1211.92945537914,-0.280989447486397,0.497502432753617,"22,254,8","6,222,255"
e0017MC,NextDayRecall,22,"2023,3,2,11,16,30.168",10,-0.0250115602105767,0.217106828196526,2195.94750530558,2095.25124945125,-0.156359708774102,0.266253659315247,"9,255,70","10,255,116"
e0017MC,NextDayRecall,23,"2023,3,2,11,16,41.034",1,-0.186349057534387,0.139806796007561,1662.15594453763,3561.85029340807,-0.390920806470527,0.146915532226408,"8,253,201","8,36,255"
e0017MC,NextDayRecall,24,"2023,3,2,11,16,52.901",19,-0.265913408953187,-0.0380599559649186,2628.99002579695,3145.01728249957,-0.0515953403039492,0.157472876048764,"255,43,9","41,255,10"
e0017MC,NextDayRecall,25,"2023,3,2,11,17,5.284",13,0.0147854776861352,-0.175528623415556,1595.70358262533,2011.93837008151,0.247804220317683,0.418815005285163,"254,20,9","253,7,6"
e0017MC,NextDayRecall,26,"2023,3,2,11,17,15.518",2,-0.0888996157794679,-0.457170347892226,1579.09877636911,1461.92732933991,0.0468910780274487,0.363771288130383,"57,255,10","217,255,8"
e0017MC,NextDayRecall,27,"2023,3,2,11,17,25.184",22,-0.072453770774898,0.423277597415298,2695.52596304447,2311.84978022617,-0.384419237048035,0.138633226059177,"210,5,254","255,6,216"
e0017MC,NextDayRecall,28,"2023,3,2,11,17,36.901",15,-0.240500709406394,-0.316743592490498,1696.01421895038,1645.24792110018,0.256438626606633,0.0195404767609326,"106,255,11","6,249,255"
e0017MC,NextDayRecall,29,"2023,3,2,11,17,46.867",30,0.0871757152324299,-0.48594510844252,1745.6474112027,2511.90391358369,0.362329761385503,0.471689780034865,"255,7,36","255,6,183"
e0017MC,NextDayRecall,30,"2023,3,2,11,17,57.767",24,-0.470344389864035,-0.46936870859166,3279.12930335998,2261.824810262,0.148250146184225,0.260465899650703,"8,50,255","255,157,8"
e0019VQ,Encoding,1,"2023,5,10,10,55,47.178",14,-0.0461995020582325,-0.00550561686421003,2498.12161870105,9302.04212934632,-0.426590645287119,0.166979059138893,"77,6,254","13,7,255"
e0019VQ,Encoding,2,"2023,5,10,10,56,6.053",15,-0.0849984212414405,0.0194593381774409,3212.22849538594,7161.55545396242,-0.0378172255130521,0.279930307465823,"8,255,58","65,255,10"
e0019VQ,Encoding,3,"2023,5,10,10,56,23.147",19,-0.0635538729714454,-0.0151366661331268,4909.54709178601,7760.94016715552,0.259241877871544,1.68510464308991e-05,"8,255,185","8,246,255"
e0019VQ,Encoding,4,"2023,5,10,10,56,42.54",27,0.0341760777277506,-0.0298001654489455,2679.32068019957,5032.51061473844,0.432723628990662,0.113080241464225,"67,5,254","19,7,255"
e0019VQ,Encoding,5,"2023,5,10,10,56,56.737",4,0.0961361884129867,0.0111820551866514,6730.07758971318,8360.28675848951,0.123162228820543,0.221739799786014,"186,255,10","255,200,11"
e0019VQ,Encoding,6,"2023,5,10,10,57,18.495",10,-0.45770720179916,-0.0609574287750758,6893.3139244196,28702.4644608968,-0.000321450306823157,0.140369098350289,"55,6,255","134,254,10"
e0019VQ,Encoding,7,"2023,5,10,10,58,0.797",20,0.0560506665284971,-0.00858063144466624,3327.77262481022,7592.83332507357,0.0256731983705443,0.177467097165718,"10,254,11","86,255,9"
e0019VQ,Encoding,8,"2023,5,10,10,58,18.341",26,0.0125711785896288,0.00903666155472774,2727.8002484959,7342.75568844117,0.266199883154342,0.123781739398567,"255,7,13","255,8,26"
e0019VQ,Encoding,9,"2023,5,10,10,58,35.068",21,0.0307684013144861,-0.0136596642316701,2244.89306378638,8359.05014402732,0.417787340620921,0.461452454424414,"40,6,255","8,8,254"
e0019VQ,Encoding,10,"2023,5,10,10,58,52.246",6,-0.0473305104700354,-0.00203612055815368,7193.18017534294,6676.23574205811,0.480440974513993,0.315041154705892,"77,7,254","168,5,254"
e0019VQ,Encoding,11,"2023,5,10,10,59,12.73",30,-0.105437481816611,-0.044560606514909,5976.15976226035,11891.414282853,-0.400635539699863,0.172979526452002,"255,7,64","254,7,237"
e0019VQ,Encoding,12,"2023,5,10,10,59,37.388",5,-0.0696746027605569,0.012511639449568,3877.66959315474,8292.21108835856,-0.381274265078783,0.0933321702563283,"254,7,92","253,7,212"
e0019VQ,Encoding,13,"2023,5,10,10,59,56.199",12,-0.0155580998902637,0.0306108807174125,4527.99537376575,8658.7468992999,-0.407551941670679,0.342705904389382,"8,34,255","7,16,255"
e0019VQ,Encoding,14,"2023,5,10,11,0,16.075",13,-0.0862733494117229,0.00379730796685627,1944.75526792775,7159.43763806342,0.31649353653985,0.139261723795402,"8,255,236","7,164,255"
e0019VQ,Encoding,15,"2023,5,10,11,0,31.82",3,-0.000630213318965764,-0.00483258309611751,2294.69956602657,7325.84893714795,0.29003404703846,0.162260804389992,"254,7,59","255,7,57"
e0019VQ,Encoding,16,"2023,5,10,11,0,50.666",1,-0.00858474567548799,-0.0204956931814258,3594.18694431895,7076.27392256632,-0.234957013505044,0.260352067985131,"7,255,231","8,255,241"
e0019VQ,Encoding,17,"2023,5,10,11,1,8.241",7,-0.0700805521616612,0.00463561649875623,4277.44414634458,7826.11183135361,-0.436857792687152,0.228672086255919,"116,6,255","236,6,255"
e0019VQ,Encoding,18,"2023,5,10,11,1,27.002",9,-0.0458404957945661,-0.0173918803103168,1145.15337743535,6826.19511295366,-0.0481280740174577,0.465552777347996,"9,255,22","47,255,11"
e0019VQ,Encoding,19,"2023,5,10,11,1,41.63",24,-0.0274476651528461,0.0042547589908577,1928.44615008812,6992.69409231408,-0.395869480523224,0.0121047132367124,"9,70,255","6,31,254"
e0019VQ,Encoding,20,"2023,5,10,11,1,57.241",18,-0.0650431958239226,0.0127066005247871,1528.68068749558,6759.86366450184,-0.399048851328236,0.0273050283436795,"7,133,254","5,26,253"
e0019VQ,Encoding,21,"2023,5,10,11,2,12.486",8,0.0583992481855649,-0.00110921251225408,2478.11585350291,7092.59066477773,0.389459746691493,0.106282901921811,"255,8,128","255,6,222"
e0019VQ,Encoding,22,"2023,5,10,11,2,28.797",23,0.0434426581010097,-0.00721601282064322,3127.7091079279,6859.38693599075,0.19627072269792,0.229340198527094,"255,149,8","255,69,8"
e0019VQ,Encoding,23,"2023,5,10,11,2,45.408",11,-0.00749757267562878,-0.0167419949578895,2028.327180563,6959.485554308,-0.377277916027061,0.0755041246659075,"6,46,255","7,58,255"
e0019VQ,Encoding,24,"2023,5,10,11,3,1.07",25,-0.177159117036456,0.435451899825294,2811.33374602689,11158.037686097,-0.366699531484962,0.0325846144948695,"8,255,176","9,74,254"
e0019VQ,Encoding,25,"2023,5,10,11,3,21.729",28,-0.00479986261538125,0.0115456290311394,3460.93960998996,6259.71660209893,-0.276961569389424,0.23882420945878,"7,233,255","6,226,254"
e0019VQ,Encoding,26,"2023,5,10,11,3,38.09",29,0.0265569850736317,8.52966254191105e-05,1228.40242724806,7376.04486884175,0.420222325036412,0.416756966009624,"255,7,231","255,7,254"
e0019VQ,Encoding,27,"2023,5,10,11,3,53.369",2,-0.0755119121108072,-0.00123556441020253,1511.22116924432,6509.58339552574,-0.0901607755926932,0.345170123769878,"9,255,131","9,255,17"
e0019VQ,Encoding,28,"2023,5,10,11,4,8.064",17,-0.0185936652406093,-0.310886923135177,3544.28425769561,56958.7005372542,-0.0153238126108415,0.0984587080266951,"141,255,9","105,254,10"
e0019VQ,Encoding,29,"2023,5,10,11,5,15.258",16,-0.024461594499125,-0.00794851787614276,2811.00032638176,7242.6512052225,0.0886708670228606,0.182895101809784,"255,214,8","255,244,8"
e0019VQ,Encoding,30,"2023,5,10,11,5,31.935",22,-0.0283234892018253,0.0192197431732468,1578.60947293011,6626.01517777841,-0.0625316199937103,0.371018103258826,"9,255,19","28,255,8"
e0019VQ,SameDayRecall,1,"2023,5,10,11,7,7.753",17,-0.0495462994598475,-0.206060428958957,3081.61303556449,6186.34375301485,-0.0462764468300796,0.418488644067439,"141,255,9","51,255,10"
e0019VQ,SameDayRecall,2,"2023,5,10,11,7,24.142",22,-0.0423839871081284,0.217339540803746,1579.25783778091,4462.8295744692,-0.0484711220874071,0.430862099110675,"9,255,19","46,254,10"
e0019VQ,SameDayRecall,3,"2023,5,10,11,7,36.971",26,-0.288854472990472,0.136326976235015,5309.91546624352,4362.74708463088,-0.0352257684257582,0.251072054078854,"255,7,13","68,255,11"
e0019VQ,SameDayRecall,4,"2023,5,10,11,7,53.448",28,-0.274957499578522,-0.170993586797105,3478.45484480444,17122.8632331383,0.00279579280447899,0.0562849936305357,"7,233,255","141,255,9"
e0019VQ,SameDayRecall,5,"2023,5,10,11,8,20.773",13,-0.195700307187232,0.46548416096034,2133.01713694864,3510.6320398977,-0.0345198799408955,0.399051423211114,"8,255,236","71,255,11"
e0019VQ,SameDayRecall,6,"2023,5,10,11,8,33.235",29,-0.447976866895705,-0.389574346263999,21521.4208192857,4893.97401907331,-0.0543115269329248,0.193583391100957,"255,7,231","38,255,9"
e0019VQ,SameDayRecall,7,"2023,5,10,11,9,6.356",19,-0.216652784534834,-0.374074469058813,5293.87730684903,13173.9474041508,0.0209647796347353,0.389194284145509,"8,255,185","175,255,10"
e0019VQ,SameDayRecall,8,"2023,5,10,11,9,31.548",4,-0.0196382550192453,0.406396309184773,2328.76379314848,6393.1085062477,-0.00738778538831109,0.383045946215864,"186,255,10","149,254,11"
e0019VQ,SameDayRecall,9,"2023,5,10,11,9,47.009",3,-0.33673645967522,-0.119632342449244,1895.26224466795,5843.12620358764,-0.0460721993177941,0.0474610450368652,"254,7,59","51,255,10"
e0019VQ,SameDayRecall,10,"2023,5,10,11,10,1.521",20,-0.0477369208625997,-0.225881317174232,2894.46051264531,15506.4990438746,-0.0339869440364416,0.394767782895284,"10,254,11","70,255,11"
e0019VQ,SameDayRecall,11,"2023,5,10,11,10,26.579",5,-0.327737728729341,-0.360836701398342,2561.32179629026,10041.591828081,-0.0161380664111142,0.466680511104238,"254,7,92","105,255,10"
e0019VQ,SameDayRecall,12,"2023,5,10,11,10,45.939",2,-0.160891073869611,-0.48079570366775,3494.71557720744,3694.09114115433,-0.00478161383389001,0.136861144308074,"9,255,131","127,255,10"
e0019VQ,SameDayRecall,13,"2023,5,10,11,10,59.902",11,-0.378975782266489,-0.0999754966531315,1628.44559292239,2794.92580459851,-0.00579970643620112,0.0412133669451135,"6,46,255","125,255,9"
e0019VQ,SameDayRecall,14,"2023,5,10,11,11,11.031",21,-0.419503851706275,0.0763977097269397,1811.70939296203,1861.11473594588,-0.0290518902291319,0.371395080465804,"40,6,255","78,255,9"
e0019VQ,SameDayRecall,15,"2023,5,10,11,11,21.411",9,-0.0478215096788356,-0.337695380326877,4793.8378653871,2394.12137472118,-0.0461470601331881,0.145249277331436,"9,255,22","51,255,10"
e0019VQ,SameDayRecall,16,"2023,5,10,11,11,35.34",24,-0.357080406524756,0.0497101510392693,1961.49926820704,1928.00335003176,-0.0113414088456215,0.057560105285124,"9,70,255","114,254,9"
e0019VQ,SameDayRecall,17,"2023,5,10,11,11,45.919",16,-0.176864633129999,0.426393097757525,4910.55174939743,5426.83814074417,-0.0637321716080129,0.382763282556547,"255,214,8","27,254,9"
e0019VQ,SameDayRecall,18,"2023,5,10,11,12,2.947",23,-0.178820105940652,-0.315516817034098,1828.20501466654,1328.13009055099,-0.0259920413437418,0.0933926313276477,"255,149,8","86,255,9"
e0019VQ,SameDayRecall,19,"2023,5,10,11,12,12.91",14,-0.450188882172104,-0.412002093691776,4861.03702600235,4443.55897466266,-0.0226012651732475,0.250528651417093,"77,6,254","91,254,10"
e0019VQ,SameDayRecall,20,"2023,5,10,11,12,28.988",27,-0.485193076144465,-0.384691897075978,5860.33851624438,13773.8109865441,0.0182933694260525,0.301411821060699,"67,5,254","170,255,12"
e0019VQ,SameDayRecall,21,"2023,5,10,11,12,55.196",8,-0.335065037365434,-0.352666479145564,2178.13640998224,1911.0880946314,-0.00400453885950533,0.457840168555122,"255,8,128","129,254,8"
e0019VQ,SameDayRecall,22,"2023,5,10,11,13,5.959",6,-0.448508037597911,0.399443476247665,4094.14105146539,15489.8172115502,-0.02372047741806,0.0823662009836198,"77,7,254","89,255,9"
e0019VQ,SameDayRecall,23,"2023,5,10,11,13,32.217",1,-0.188772551333889,-0.321560486835746,2361.38584101377,23087.1978879318,-0.0375997164956669,0.438583138360548,"7,255,231","65,255,10"
e0019VQ,SameDayRecall,24,"2023,5,10,11,14,4.306",7,-0.437965569546841,-0.47480473175085,1828.31556805809,2094.38209891346,-0.0550960856043456,0.291887565494474,"116,6,255","36,255,9"
e0019VQ,SameDayRecall,25,"2023,5,10,11,14,14.969",25,-0.18864156016638,-0.39311440112803,1711.2386466506,4893.59045452102,-0.0008988542821264,0.138849084551806,"8,255,176","133,254,10"
e0019VQ,SameDayRecall,26,"2023,5,10,11,14,28.298",15,-0.0528916894652897,-0.110503115640847,3361.18291542493,1894.37429859436,-0.069923957289203,0.149967853647535,"8,255,58","21,254,9"
e0019VQ,SameDayRecall,27,"2023,5,10,11,14,40.261",12,-0.342395942685428,-0.196556953353435,1678.22980853725,1628.07287843793,-0.0495978990949877,0.115538070318535,"8,34,255","45,255,10"
e0019VQ,SameDayRecall,28,"2023,5,10,11,14,50.24",18,-0.255092816873957,0.443091068429275,3860.93556320793,2444.07684545718,-0.0789128386303565,0.457689496248167,"7,133,254","11,255,10"
e0019VQ,SameDayRecall,29,"2023,5,10,11,15,3.186",10,-0.413851088479069,0.350682821947687,1644.66292505517,12590.750405338,-0.0441775636269144,0.447990650926948,"55,6,255","52,255,9"
e0019VQ,SameDayRecall,30,"2023,5,10,11,15,24.029",30,-0.352995211110858,-0.193628818085924,1795.05395269439,1161.35751353977,-0.0577971532276058,0.0239113148809867,"255,7,64","34,254,9"
e0019VQ,NextDayRecall,1,"2023,5,11,13,54,22.188",9,-0.307803750099053,-0.416078366743741,2615.05489794279,4821.45925716963,0.213835180287029,0.0668662909145717,"9,255,22","255,43,9"
e0019VQ,NextDayRecall,2,"2023,5,11,13,54,39.901",19,-0.364312934898093,-0.41967871317967,1363.13195974601,1997.24762517499,-0.439999060201809,0.434798528266366,"8,255,185","232,7,255"
e0019VQ,NextDayRecall,3,"2023,5,11,13,54,49.964",24,-0.35187795405209,0.0956058554058784,2427.84707751515,3213.39995413686,-0.0165438613182873,0.103455809651733,"9,70,255","105,255,10"
e0019VQ,NextDayRecall,4,"2023,5,11,13,55,2.327",25,-0.202758226495553,0.103686139257733,1179.16769545937,3061.04049504039,0.0132178120470461,0.364350375062431,"8,255,176","160,255,11"
e0019VQ,NextDayRecall,5,"2023,5,11,13,55,13.225",8,-0.249403441780458,-0.181808843081181,2948.41041996442,1595.11674866707,0.0816570567254706,0.0766351536716241,"255,8,128","255,251,11"
e0019VQ,NextDayRecall,6,"2023,5,11,13,55,24.469",29,-0.332802239409207,-0.146262720349724,1228.8415217413,2944.32936302434,0.0608631005535735,0.436895017015232,"255,7,231","236,255,8"
e0019VQ,NextDayRecall,7,"2023,5,11,13,55,35.231",28,-0.110420480166405,0.262995382837857,2145.19642267516,1994.72251334694,-0.382582186940448,0.035716802410216,"7,233,255","7,48,255"
e0019VQ,NextDayRecall,8,"2023,5,11,13,55,46.078",3,0.15736824672912,0.195979412638133,945.265979814366,1828.10149477471,0.448032507086546,0.363072800124242,"254,7,59","222,6,255"
e0019VQ,NextDayRecall,9,"2023,5,11,13,55,55.474",5,-0.0953740413569664,-0.107151862837446,1045.99597788482,2744.72441942369,-0.406973703675193,0.212995672543343,"254,7,92","254,6,243"
e0019VQ,NextDayRecall,10,"2023,5,11,13,56,5.871",20,-0.382182660347444,-0.251203346333072,2061.49091563822,2177.85631465632,0.300458795448403,0.0823168806120201,"10,254,11","253,8,70"
e0019VQ,NextDayRecall,11,"2023,5,11,13,56,16.767",27,-0.105794070328017,-0.394040404224186,1861.64639285239,111.959429303027,0.427306222953571,0.477320480239465,"67,5,254","246,6,254"
e0019VQ,NextDayRecall,12,"2023,5,11,13,56,25.431",18,-0.409687323290531,0.252565151641636,1011.82500690586,1577.96059171662,0.256307021205156,0.237966723822744,"7,133,254","255,7,15"
e0019VQ,NextDayRecall,13,"2023,5,11,13,56,34.661",21,-0.117265251068327,-0.3697283814683,1445.19912050686,728.683757235018,0.434179006996266,0.182478828338956,"40,6,255","240,7,255"
e0019VQ,NextDayRecall,14,"2023,5,11,13,56,43.475",12,-0.456007493435273,0.42575042245647,2044.78371307269,2794.17714080279,0.0640136516548577,0.1136553987845,"8,34,255","240,255,9"
e0019VQ,NextDayRecall,15,"2023,5,11,13,56,54.921",1,-0.468027629905739,-0.216543682920655,1727.93510893669,1111.42308863023,0.241655362076183,0.45640005772436,"7,255,231","255,10,5"
e0019VQ,NextDayRecall,16,"2023,5,11,13,57,4.385",26,-0.301619253401424,0.421708092259269,1361.53437418807,4893.38315720207,-0.444752042033863,0.30696301441543,"255,7,13","33,7,254"
e0019VQ,NextDayRecall,17,"2023,5,11,13,57,17.313",11,-0.35018134057169,0.0371140394390828,1478.37981130425,3577.19874750231,-0.26504317072562,0.0216480902689353,"6,46,255","255,7,25"
e0019VQ,NextDayRecall,18,"2023,5,11,13,57,28.976",30,0.268482832236972,0.231695532338088,2694.81306665463,1411.35863391187,0.436319109879776,0.449235665304999,"255,7,64","23,7,255"
e0019VQ,NextDayRecall,19,"2023,5,11,13,57,39.739",2,-0.345873559970522,-0.14827893147328,1345.16381410063,1794.58885338047,-0.488453752325977,0.492213490832955,"9,255,131","151,7,253"
e0019VQ,NextDayRecall,20,"2023,5,11,13,57,49.519",6,0.257474693678267,-0.191646849959193,2594.709434728,2077.86968651783,0.214753821337704,0.125430425304853,"77,7,254","9,255,216"
e0019VQ,NextDayRecall,21,"2023,5,11,13,58,0.799",22,-0.0394926822620539,0.348303191137469,1628.56663614988,2077.78083401709,-0.0513624269334817,0.299898448776951,"9,255,19","41,255,10"
e0019VQ,NextDayRecall,22,"2023,5,11,13,58,11.145",10,-0.263545244334016,0.25948855053489,2011.8511054952,1578.02217265771,-0.27842610356,0.460815077660255,"55,6,255","255,6,39"
e0019VQ,NextDayRecall,23,"2023,5,11,13,58,21.359",13,-0.161621210304263,0.337767540384975,3261.07122686241,4993.39500420217,-0.391841397432391,0.473231956213521,"8,255,236","8,34,255"
e0019VQ,NextDayRecall,24,"2023,5,11,13,58,36.253",23,-0.184019493250378,-0.265824386016565,1528.41285974267,1661.26640912148,-0.0311914286534676,0.0437002003101142,"255,149,8","77,254,10"
e0019VQ,NextDayRecall,25,"2023,5,11,13,58,46.084",14,-0.340585404165642,-0.468524070551914,1345.16234788771,1944.54694901628,0.186624448489007,0.370002487173403,"77,6,254","255,88,10"
e0019VQ,NextDayRecall,26,"2023,5,11,13,58,55.964",4,-0.204425269749965,0.42988425296675,1261.80433330421,2111.12720687032,-0.231451310157521,0.219326508367388,"186,255,10","254,21,8"
e0019VQ,NextDayRecall,27,"2023,5,11,13,59,5.96",15,-0.264690986609661,-0.1956360003269,1078.41980959171,1677.76922161107,0.387506633364154,0.0648349689614822,"8,255,58","8,42,254"
e0019VQ,NextDayRecall,28,"2023,5,11,13,59,15.324",7,-0.438697244343992,-0.365371781650634,1678.24544755558,3693.93421865226,0.0682411005048206,0.401320515594691,"116,6,255","244,254,7"
e0019VQ,NextDayRecall,29,"2023,5,11,13,59,27.37",16,0.301914452871769,0.240307105429311,4760.61640762595,5393.24679940387,0.415046914393755,0.431150725115238,"255,214,8","254,6,248"
e0019VQ,NextDayRecall,30,"2023,5,11,13,59,44.198",17,-0.40655326667087,0.0330443172175321,995.368526743392,1094.79154264955,-0.409823119300638,0.17938389789095,"141,255,9","255,5,250"
e0020JA,Encoding,1,"2023,7,14,11,54,35.132",8,0.0543619441877036,0.0189406009609124,3132.09829515114,7271.94153128195,0.0773728634796734,0.0864348839474424,"178,255,9","254,255,11"
e0020JA,Encoding,2,"2023,7,14,11,54,54.175",24,-0.0195813536718438,-0.00629248270791027,3246.86277252525,6961.69845022004,-0.0266338795823803,0.198624618130794,"121,254,8","84,255,9"
e0020JA,Encoding,3,"2023,7,14,11,55,11.974",4,0.0193063347408115,0.00855261861149345,3230.05533273687,6946.05842590403,0.152792370723488,0.126459957160471,"255,182,10","255,149,8"
e0020JA,Encoding,4,"2023,7,14,11,55,29.507",20,-0.0982369384306073,0.02204732618705,2496.59789736188,6878.71723297022,-0.416790422395646,0.0951250526476907,"255,7,105","255,7,253"
e0020JA,Encoding,5,"2023,7,14,11,55,46.274",28,-0.0552951961011879,0.00416103892963402,2398.96636371341,6529.23333265886,0.362294579104372,0.21150240059391,"255,7,255","255,6,183"
e0020JA,Encoding,6,"2023,7,14,11,56,2.707",15,-0.0162215933107134,0.000579207503072273,1962.23861080784,6762.10794003805,0.39853030283697,0.277315043257071,"254,5,250","255,6,236"
e0020JA,Encoding,7,"2023,7,14,11,56,18.822",22,-0.143410094443993,0.00244597196176125,2679.67245506503,6728.50801604761,-0.0280705200062013,0.450286064565885,"9,255,143","83,253,10"
e0020JA,Encoding,8,"2023,7,14,11,56,35.504",3,-0.00892605157750292,0.00637551985451586,3245.81910719843,6512.01036216855,-0.472940352031505,0.029518669398972,"95,6,254","77,6,254"
e0020JA,Encoding,9,"2023,7,14,11,56,52.769",14,-0.0121296060420726,0.000483203463985639,2063.01228381477,6578.51961395818,-0.401515188773988,0.155312246159544,"6,11,254","7,24,255"
e0020JA,Encoding,10,"2023,7,14,11,57,8.852",9,-0.0169595523647679,0.00542248055014603,2095.64332040998,6595.21298074514,-0.407069932715825,0.0541524005207898,"255,6,224","254,6,243"
e0020JA,Encoding,11,"2023,7,14,11,57,25.085",30,-0.0202722029862,0.00272575073432618,1562.31655580473,6895.30561740622,-0.423445214355268,0.399966614270145,"29,6,254","10,6,255"
e0020JA,Encoding,12,"2023,7,14,11,57,41.118",29,-0.0197533055642543,-0.00186031134588776,3245.84549940954,7212.18868554178,-0.470876010505333,0.266051526286376,"147,6,254","186,6,255"
e0020JA,Encoding,13,"2023,7,14,11,57,59.051",19,-0.0492815137019756,0.007608750536238,2762.40881124494,6228.5401265712,-0.074566216252831,0.236337365178122,"8,255,59","13,255,10"
e0020JA,Encoding,14,"2023,7,14,11,58,15.601",16,-0.0107129691945891,0.00745042012765732,3395.98404385566,6395.05445153026,0.4902803366788,0.212837742654177,"91,6,255","112,7,255"
e0020JA,Encoding,15,"2023,7,14,11,58,32.784",25,-0.0339164745524878,0.0133829296045222,2095.63657573375,6961.83510322436,0.414062098796877,0.183819985704082,"222,6,255","255,6,251"
e0020JA,Encoding,16,"2023,7,14,11,58,49.15",5,0.0230435229716076,-0.00596325503875791,2195.55807356801,6629.01231255302,0.406196733055849,0.308043652401191,"255,6,213","255,6,242"
e0020JA,Encoding,17,"2023,7,14,11,59,5.266",13,-0.069557226464858,0.00920444213941652,1812.02646141742,6661.82516215815,-0.419745425540473,0.210738744705781,"6,103,255","6,6,253"
e0020JA,Encoding,18,"2023,7,14,11,59,20.932",2,-0.00239863623532931,-0.00920120901382808,2829.02275213877,6561.85557185029,-0.489166200547499,0.438813966340466,"147,6,255","152,6,255"
e0020JA,Encoding,19,"2023,7,14,11,59,37.565",27,-0.0210562126956051,0.0040298506281494,2028.88011689987,6595.11679579788,-0.0706560572769406,0.312024549585749,"8,255,18","20,255,9"
e0020JA,Encoding,20,"2023,7,14,11,59,53.465",23,0.0457562896447817,0.0237186224172318,1695.89955945537,6378.53527333681,0.270126064630474,0.393612361588652,"9,166,255","10,235,252"
e0020JA,Encoding,21,"2023,7,14,12,0,8.864",12,-0.0572699942425568,-0.00795407448391435,1796.15975733236,6245.18481439088,0.43161180373498,0.126902011471544,"152,6,255","243,7,254"
e0020JA,Encoding,22,"2023,7,14,12,0,24.314",17,-0.0338612763083015,0.00165683938017086,1295.60156206696,6111.83054323681,0.422123781377509,0.0604441223015005,"6,41,255","8,7,254"
e0020JA,Encoding,23,"2023,7,14,12,0,38.898",10,-0.0286245677687034,0.00619687839215164,2545.82230358835,6378.48747410999,-0.0737982330428903,0.0511749358034434,"9,254,31","15,255,10"
e0020JA,Encoding,24,"2023,7,14,12,0,55.247",6,-0.0416195629580588,-0.000491282558202184,1879.16472757218,6211.80335925919,-0.251946553112385,0.317598638312957,"8,201,255","8,253,254"
e0020JA,Encoding,25,"2023,7,14,12,1,10.614",26,-0.0340112807505748,-0.0112228736186843,1862.32532388374,6078.50509824198,0.0724833994612936,0.449173259195373,"255,225,11","251,255,10"
e0020JA,Encoding,26,"2023,7,14,12,1,25.779",7,-0.0207996249961803,-0.00708424845660573,1278.94103892061,6195.15251325697,0.060670361161172,0.422188536813245,"254,252,11","236,255,8"
e0020JA,Encoding,27,"2023,7,14,12,1,40.712",21,0.0544083088120445,0.0116406209531693,1762.34341721079,6445.17736592241,0.0753511948982736,0.18373578289048,"10,255,70","11,254,9"
e0020JA,Encoding,28,"2023,7,14,12,1,56.061",18,0.0490373851350343,0.0141999682186871,1595.56986208895,6145.17534251956,0.248746841191689,0.15255875347662,"255,66,11","253,7,8"
e0020JA,Encoding,29,"2023,7,14,12,2,10.978",11,-0.0424149168429063,0.004193045070004,1762.24547278275,6361.7700610863,0.272243555754688,0.267169471261274,"8,255,236","7,233,255"
e0020JA,Encoding,30,"2023,7,14,12,2,26.41",1,-0.00058846004900858,-0.00380468989376989,1312.39580574981,6261.86146611076,0.406770573484907,0.210306462556621,"7,18,255","8,17,255"
e0020JA,SameDayRecall,1,"2023,7,14,12,3,35.13",7,0.0131238476098014,-0.0271530060924475,6532.80126635696,1721.44282112788,0.0945938337671536,0.402119779177404,"254,252,11","254,240,9"
e0020JA,SameDayRecall,2,"2023,7,14,12,3,51.176",11,-0.17550505912479,0.407241151274101,1863.67924431477,4379.40768253804,0.405333698036571,0.14426472508283,"8,255,236","8,19,255"
e0020JA,SameDayRecall,3,"2023,7,14,12,4,4.926",2,-0.0730365663992064,-0.0314379330357258,5979.86303615414,1296.54435049792,0.418528270383622,0.416577242318568,"147,6,255","255,7,254"
e0020JA,SameDayRecall,4,"2023,7,14,12,4,19.526",14,-0.176172082836258,-0.302491287557056,2196.63223656107,1545.19006350847,-0.410183122347681,0.146695837933526,"6,11,254","255,5,250"
e0020JA,SameDayRecall,5,"2023,7,14,12,4,31.027",9,-0.465679758638234,0.0813838323113914,2032.35245214433,11761.8698236444,-0.0755693782871769,0.130113752282035,"255,6,224","11,254,9"
e0020JA,SameDayRecall,6,"2023,7,14,12,4,52.109",5,0.0172891089616794,-0.144888397969044,3862.28544232017,5211.84412056311,0.400442319045921,0.169118509470904,"255,6,213","255,6,236"
e0020JA,SameDayRecall,7,"2023,7,14,12,5,8.575",3,-0.248656379052721,0.0749461210168512,2712.17006437064,2379.02968742537,-0.233210024556287,0.0980892705613073,"95,6,254","7,255,237"
e0020JA,SameDayRecall,8,"2023,7,14,12,5,20.808",22,-0.0757995948751506,-0.0164384690553095,1912.94294561124,1128.64531419484,-0.0956810195750433,0.469170505582956,"9,255,143","9,255,22"
e0020JA,SameDayRecall,9,"2023,7,14,12,5,31.308",17,0.0655198618248899,-0.0914956781067028,4378.95080403871,1995.30922434178,0.322742643244318,0.153596639788374,"6,41,255","6,153,255"
e0020JA,SameDayRecall,10,"2023,7,14,12,5,45.091",26,-0.0248483765591585,-0.0205979699637483,1595.88832810323,1345.25469510106,0.0816463036527098,0.439798162850309,"255,225,11","255,251,11"
e0020JA,SameDayRecall,11,"2023,7,14,12,5,55.441",24,-0.366429713715357,0.322525665514244,4695.95996829423,1978.48008429094,0.35937718780482,0.472557233647052,"121,254,8","255,8,178"
e0020JA,SameDayRecall,12,"2023,7,14,12,6,9.374",27,0.0180080738133222,0.352648510611245,2029.52525983858,3078.58456812221,0.0737041961592234,0.0446538116536461,"8,255,18","15,255,10"
e0020JA,SameDayRecall,13,"2023,7,14,12,6,21.691",25,-0.290878867727619,-0.389522400584305,3479.14062268603,3245.17865620828,-0.261142558923016,0.413274684107092,"222,6,255","9,244,255"
e0020JA,SameDayRecall,14,"2023,7,14,12,6,35.541",20,0.0725716125728988,0.0351541747481342,2378.84670142807,2012.18059193036,0.391125096537938,0.108231901208775,"255,7,105","255,6,226"
e0020JA,SameDayRecall,15,"2023,7,14,12,6,47.024",30,-0.00796765842162091,0.469970941661733,3179.18933097803,1695.27171807727,-0.451685075763089,0.132788194802448,"29,6,254","42,8,253"
e0020JA,SameDayRecall,16,"2023,7,14,12,6,59.19",12,-0.0690746216200563,-0.486135081135564,2145.8542088393,1345.2250771752,-0.419807176357481,0.394916981876806,"152,6,255","255,7,254"
e0020JA,SameDayRecall,17,"2023,7,14,12,7,9.824",1,-0.496158367067045,0.306102091506575,1428.90686100714,1695.21776066779,0.0899762536311473,0.479786756043034,"7,18,255","255,243,8"
e0020JA,SameDayRecall,18,"2023,7,14,12,7,20.357",28,-0.154512715026833,0.207707815469203,1262.31775811652,4511.91388397467,-0.427897509767607,0.415049177133479,"255,7,255","12,7,254"
e0020JA,SameDayRecall,19,"2023,7,14,12,7,33.407",10,-0.0563586630472058,0.00825859402652671,1428.85730229966,1528.54830815659,-0.0460641377643878,0.0491132201690683,"9,254,31","51,255,10"
e0020JA,SameDayRecall,20,"2023,7,14,12,7,43.507",13,-0.0819526716477404,0.0475553501875474,1995.82093999084,1295.23910903424,-0.432140870723356,0.17238783665765,"6,103,255","17,6,255"
e0020JA,SameDayRecall,21,"2023,7,14,12,7,53.973",4,-0.056123627627195,0.269705866005629,1741.55016704799,5628.54311768842,0.0773624083554817,0.387613204554607,"255,182,10","254,255,11"
e0020JA,SameDayRecall,22,"2023,7,14,12,8,8.473",16,0.389510533416652,-0.097422583437728,1712.22930022225,4728.30802173667,0.0900568340675585,0.107964739088792,"91,6,255","9,255,17"
e0020JA,SameDayRecall,23,"2023,7,14,12,8,22.222",8,0.0873359629725419,0.143024240157346,2562.42857607867,5078.49630083842,0.110346882264512,0.210518523143876,"178,255,9","254,220,11"
e0020JA,SameDayRecall,24,"2023,7,14,12,8,37.256",18,0.0535751176950905,0.0261859796474076,1612.21953510414,2628.59824808504,0.253284573751745,0.140572742047899,"255,66,11","255,7,13"
e0020JA,SameDayRecall,25,"2023,7,14,12,8,48.672",29,-0.419194414657135,-0.382734167222135,2045.7291977325,5228.56446605488,0.0714349014124523,0.353074617837377,"147,6,254","250,255,10"
e0020JA,SameDayRecall,26,"2023,7,14,12,9,3.122",19,-0.063989114601277,-0.00554466208923417,1062.12286629989,1828.92568745115,-0.0598586153535298,0.249490777803594,"8,255,59","30,255,9"
e0020JA,SameDayRecall,27,"2023,7,14,12,9,13.372",21,0.0608085149947688,0.0375772411222141,2262.69604647609,1228.53631436305,0.0689509887155493,0.157799162721435,"10,255,70","20,255,9"
e0020JA,SameDayRecall,28,"2023,7,14,12,9,23.972",15,-0.0193975809759661,-0.182755538523692,4479.23680763347,5511.88162682752,-0.395354315171718,0.0939802972303062,"254,5,250","255,6,231"
e0020JA,SameDayRecall,29,"2023,7,14,12,9,41.222",6,-0.382888429239673,-0.204622336854268,1478.73300964739,4361.7392701733,0.0893223131692292,0.113467584016891,"8,201,255","255,243,7"
e0020JA,SameDayRecall,30,"2023,7,14,12,9,54.171",23,-0.0519168583164786,0.013570888474624,1562.20482877757,1278.5454490006,-0.263965495958777,0.383464627646044,"9,166,255","8,242,255"
e0020JA,NextDayRecall,1,"2023,7,15,12,8,56.695",23,0.0524748979469795,-0.0150566819610571,2249.46152873934,2222.95276085835,0.263407456328277,0.354837057210363,"9,166,255","8,243,255"
e0020JA,NextDayRecall,2,"2023,7,15,12,9,13.686",2,-0.102281527322162,-0.294346481766445,2997.14965791496,4929.63261964326,0.389283309460666,0.153668693587849,"147,6,255","255,6,222"
e0020JA,NextDayRecall,3,"2023,7,15,12,9,28.835",5,-0.252908914925793,-0.096591636052463,2346.21128835169,2996.58486790922,-0.363937874989965,0.217415271387486,"255,6,213","6,80,255"
e0020JA,NextDayRecall,4,"2023,7,15,12,9,41.367",21,-0.0306492888321652,-0.357827604440471,2063.25032249627,1595.25758207123,-0.0991102148781529,0.162451200596821,"10,255,70","11,255,25"
e0020JA,NextDayRecall,5,"2023,7,15,12,9,52.069",9,-0.00989069268829265,0.139813340831642,5115.73737792574,2878.75782561127,0.380219687662764,0.0910834208609985,"255,6,224","255,6,210"
e0020JA,NextDayRecall,6,"2023,7,15,12,10,7.018",17,-0.204818633017902,-0.324784620547887,2245.34818013575,2745.03983294414,0.40691886191289,0.262683658866215,"6,41,255","254,6,243"
e0020JA,NextDayRecall,7,"2023,7,15,12,10,19.067",18,-0.0234274553564925,-0.489369700991042,1829.42638038519,3862.16719250396,-0.223136911413147,0.343871577313651,"255,66,11","255,32,6"
e0020JA,NextDayRecall,8,"2023,7,15,12,10,31.883",25,0.0497745267612807,-0.431995092023562,3929.46107127703,3679.01981075723,0.497753100110645,0.234792176714958,"222,6,255","133,6,255"
e0020JA,NextDayRecall,9,"2023,7,15,12,10,46.483",24,-0.0942794278277942,0.156246039360812,2129.0993828071,2895.05198795231,0.0872269019172577,0.361163140199516,"121,254,8","255,246,9"
e0020JA,NextDayRecall,10,"2023,7,15,12,10,58.433",7,-0.358179084293461,-0.0601967995359591,7179.45659928972,2228.51444686502,-0.439649070450813,0.369075985733892,"254,252,11","232,7,255"
e0020JA,NextDayRecall,11,"2023,7,15,12,11,14.833",1,-0.490679002295439,0.28256902216757,2112.44980744061,1178.55487069798,0.103138884268663,0.0684578697171792,"7,18,255","255,229,9"
e0020JA,NextDayRecall,12,"2023,7,15,12,11,25.1",4,-0.0696410119430334,0.285387124788372,5762.09936491915,5278.49396369686,0.0638450240396433,0.40329446333735,"255,182,10","240,255,9"
e0020JA,NextDayRecall,13,"2023,7,15,12,11,43.182",14,-0.160787721120362,-0.233667616705053,2245.82206416963,1728.96619089607,-0.425567484063577,0.077872167081523,"6,11,254","250,6,254"
e0020JA,NextDayRecall,14,"2023,7,15,12,11,54.166",19,-0.0223265015889205,-0.00549327286988128,2028.94856686734,1278.54205588841,-0.101521228365886,0.249439388584242,"8,255,59","10,255,29"
e0020JA,NextDayRecall,15,"2023,7,15,12,12,4.833",12,-0.403159284738149,-0.357777236746507,2046.19489595225,1778.59850556447,0.0857225132393882,0.238829299758877,"152,6,255","255,248,10"
e0020JA,NextDayRecall,16,"2023,7,15,12,12,15.699",6,-0.363460273502438,0.0462685620242213,4245.36782755547,3645.17815664391,0.0698941574319949,0.364358482895381,"8,201,255","247,255,8"
e0020JA,NextDayRecall,17,"2023,7,15,12,12,30.732",26,0.291271926669962,-0.0182609222740443,7545.33554127323,895.282771822793,0.397766606881831,0.442135210540013,"255,225,11","255,5,234"
e0020JA,NextDayRecall,18,"2023,7,15,12,12,46.115",13,-0.393688420576618,0.0742106149399453,2445.64189439834,1161.85221797374,0.256123380347767,0.145732571905252,"6,103,255","255,7,15"
e0020JA,NextDayRecall,19,"2023,7,15,12,12,56.749",3,-0.0513950285156998,0.170185480159175,1812.39089450597,5211.86809719433,0.466738567875292,0.193328629703631,"95,6,254","192,5,254"
e0020JA,NextDayRecall,20,"2023,7,15,12,13,10.649",29,-0.0815817399516242,-0.356146558799803,9511.49828583595,2195.07248578276,0.409047576117963,0.379662226259708,"147,6,254","254,6,246"
e0020JA,NextDayRecall,21,"2023,7,15,12,13,36.382",22,-0.093533248022804,-0.0209105717098693,1995.71363680485,861.914415253181,-0.0779473664273899,0.473642608237516,"9,255,143","11,255,10"
e0020JA,NextDayRecall,22,"2023,7,15,12,13,46.032",28,-0.0311116676138723,0.211279321309778,4712.03246105631,1228.58189323125,0.386478107591688,0.00393795964550213,"255,7,255","254,6,221"
e0020JA,NextDayRecall,23,"2023,7,15,12,13,58.782",15,-0.46382142541507,-0.0597877254157883,1461.67066995065,1461.85688057039,-0.0490695292673859,0.21694811033821,"254,5,250","45,255,10"
e0020JA,NextDayRecall,24,"2023,7,15,12,14,8.698",20,0.0986437358261185,0.334086313124367,3062.27410965664,1678.71073045296,0.417197219791157,0.407164039585008,"255,7,105","255,7,254"
e0020JA,NextDayRecall,25,"2023,7,15,12,14,20.498",30,-0.14199913408055,-0.286423403167835,5862.1718844251,1561.87778894389,-0.414283448577981,0.110817460367984,"29,6,254","254,6,249"
e0020JA,NextDayRecall,26,"2023,7,15,12,14,34.998",27,-0.490259166930982,-0.0647651390538504,4895.69038247078,4061.83776099181,0.398546896958437,0.243229559903749,"8,255,18","255,6,236"
e0020JA,NextDayRecall,27,"2023,7,15,12,14,51.165",16,-0.128328396151819,0.327389743535968,1945.57488789974,1128.57476737605,0.392104236363971,0.122002421009448,"91,6,255","255,7,227"
e0020JA,NextDayRecall,28,"2023,7,15,12,15,1.231",11,-0.364567091073059,-0.0730588753250903,3679.04092440233,1461.77389221543,0.40560427001516,0.18991755086618,"8,255,236","255,7,243"
e0020JA,NextDayRecall,29,"2023,7,15,12,15,13.481",8,0.423421977272651,0.180984762302321,3212.32467976904,1261.94907682054,0.446432896564621,0.248479045288851,"178,255,9","225,6,255"
e0020JA,NextDayRecall,30,"2023,7,15,12,15,25.031",10,-0.14642436218515,-0.0353666976487925,1345.77054101072,1161.82699889771,0.0440015613735564,0.0927385118443876,"9,254,31","214,255,9"
e0024DV,Encoding,1,"2023,10,19,9,27,59.845",3,-0.0536881448324844,-0.0316710505325677,1615.32037232641,8955.87963611902,-0.391610224697525,0.437725268848545,"6,125,255","8,34,255"
e0024DV,Encoding,2,"2023,10,19,9,28,19.186",12,-0.00636655388261047,-0.00884516295363046,4546.50356027901,8861.6147907731,0.260554480275592,0.06722880969101,"255,8,27","254,7,17"
e0024DV,Encoding,3,"2023,10,19,9,28,41.402",24,-0.180142876322048,-0.0390507340688156,6863.05960542222,7162.48373227262,0.0244667933547195,0.10167822168252,"9,254,115","183,254,10"
e0024DV,Encoding,4,"2023,10,19,9,29,3.568",18,0.0463944051818163,0.017818451467309,3629.35592409195,7895.24258047942,0.255217804952132,0.346084446554669,"5,191,255","7,250,255"
e0024DV,Encoding,5,"2023,10,19,9,29,25.536",15,-0.050492672424805,-0.00837940983445183,3148.74054507078,9245.68740275288,0.288686192751104,0.377893542633789,"9,255,248","8,208,255"
e0024DV,Encoding,6,"2023,10,19,9,29,46.001",13,-0.0806977698389313,0.0247057390616706,3329.11716458574,10194.9297474638,-0.267111341923335,0.320949272584815,"9,255,168","6,239,254"
e0024DV,Encoding,7,"2023,10,19,9,30,9.25",4,-0.00212618778066586,0.0213310075986119,4112.05216464145,9078.84664672213,-0.250927159064021,0.147815802861848,"6,255,254","8,253,254"
e0024DV,Encoding,8,"2023,10,19,9,30,33.033",10,-0.00889714698643052,0.0366104473900261,2595.39119668892,10645.3641302404,-0.384381474663644,0.109189385442116,"7,33,255","6,46,255"
e0024DV,Encoding,9,"2023,10,19,9,30,53.967",26,0.0119247740713978,-0.00566509631574873,5095.37477500828,9612.17415426881,0.105514351849418,0.127406073639138,"253,240,8","255,225,9"
e0024DV,Encoding,10,"2023,10,19,9,31,19.815",27,-0.0156670688384262,-0.0186499032432124,3645.4289372299,8978.40812920111,-0.311084492713958,0.461044708442382,"6,199,254","7,174,253"
e0024DV,Encoding,11,"2023,10,19,9,31,42.114",22,0.105293326685577,-0.0217921133649193,6078.62612701115,7895.06634065725,0.117892439417386,0.489428628341258,"160,255,11","255,210,8"
e0024DV,Encoding,12,"2023,10,19,9,32,9.564",19,-0.116280257591463,0.0281365311857946,6461.96210931794,9095.08065097884,-0.427702038795993,0.126031630105882,"254,6,91","246,6,254"
e0024DV,Encoding,13,"2023,10,19,9,32,44.062",17,-0.0722680272680857,-0.0645960550366283,2495.48872974196,7328.45472571978,0.417096672494235,0.421496337255167,"7,112,254","6,9,254"
e0024DV,Encoding,14,"2023,10,19,9,33,2.612",5,0.00275109582502174,-0.00482767063289474,7061.92263863557,9245.37978948581,0.159985372979178,0.212231104574832,"253,141,9","255,136,8"
e0024DV,Encoding,15,"2023,10,19,9,33,29.245",23,-0.0242676565234532,-0.24669070104906,3179.67723186768,5228.47073685841,-0.345274956604067,0.41461642158994,"7,69,255","7,112,254"
e0024DV,Encoding,16,"2023,10,19,9,33,45.412",16,-0.0020958286920676,-0.0464814807251765,2295.47764510755,9728.33877692494,0.42816904936443,0.40170224390236,"246,6,254","246,7,254"
e0024DV,Encoding,17,"2023,10,19,9,34,5.177",7,-0.0511664336363505,-0.0162884448835793,3528.09514956346,8428.29033296721,-0.41457530483276,0.235869425642569,"255,7,183","254,5,250"
e0024DV,Encoding,18,"2023,10,19,9,34,25.926",14,-0.140210793595889,-0.0138410814698808,2395.5167638967,7894.99566878169,0.412886227061442,0.332849517435501,"7,233,255","6,12,254"
e0024DV,Encoding,19,"2023,10,19,9,34,44.576",1,-0.0574775891500449,-0.0203273523886765,3745.51673457233,8511.43623432097,-0.402717308153967,0.495742549842986,"57,7,255","7,22,255"
e0024DV,Encoding,20,"2023,10,19,9,35,10.076",30,0.00768962588733713,0.0177999407889113,4295.48673568081,8311.70490474551,0.397270795362471,0.274034426717558,"255,7,225","255,6,233"
e0024DV,Encoding,21,"2023,10,19,9,35,31.859",29,-0.00447228483357742,0.00306120437420774,3528.77137091127,9311.73862783953,-0.250187380440218,0.122470375121134,"7,251,255","8,253,254"
e0024DV,Encoding,22,"2023,10,19,9,35,52.725",21,0.0049806854870833,-0.0361151070064071,7695.27372302366,7261.85425406561,0.1514535085866,0.39415275634794,"255,159,8","255,154,8"
e0024DV,Encoding,23,"2023,10,19,9,36,15.691",11,0.0707063030582368,-0.0261105612122672,2245.55397659788,7378.26901410688,0.378469670465047,0.0564119546444247,"40,7,254","7,54,254"
e0024DV,Encoding,24,"2023,10,19,9,36,42.24",9,0.00716562200176086,0.0101735653884357,2295.95592655517,7411.81733460871,0.0933571146163716,0.107081378450041,"255,247,10","253,240,8"
e0024DV,Encoding,25,"2023,10,19,9,37,0.522",28,-0.0855211524237909,-0.0321103171320797,1878.92852052971,6511.87463454426,-0.00363383024709911,0.416013197927866,"8,255,16","129,254,8"
e0024DV,Encoding,26,"2023,10,19,9,37,16.841",6,-0.0333657616468278,0.00467772541437903,3745.26307825567,7245.03170850573,0.230182850886982,0.20049034545182,"254,6,19","255,22,9"
e0024DV,Encoding,27,"2023,10,19,9,37,36.225",8,-0.108302120078811,-0.0622316165994544,2062.22878568133,9561.3748582897,-0.0220829819240657,0.416163396624932,"9,255,70","92,254,10"
e0024DV,Encoding,28,"2023,10,19,9,37,56.774",2,0.0292634126802707,-0.0355425475000127,7045.33703446737,7978.30314774285,0.172437553823628,0.0273582066782898,"255,166,8","255,114,8"
e0024DV,Encoding,29,"2023,10,19,9,38,20.157",25,-0.210670384756191,-0.0643674902865756,5678.77374619002,9295.04071110568,0.150259520877608,0.418818174110512,"255,7,181","254,153,9"
e0024DV,Encoding,30,"2023,10,19,9,38,44.973",20,-0.0264626390635316,-0.0133315777894908,1428.83283491585,6928.36452377423,0.43539843859241,0.310499205118442,"6,15,254","22,6,255"
e0024DV,SameDayRecall,1,"2023,10,19,9,39,52.6",22,-0.340660006524615,-0.273857226947249,4349.087687669,3088.19498165178,-0.328060893792806,0.258506258076412,"160,255,11","6,144,255"
e0024DV,SameDayRecall,2,"2023,10,19,9,40,8.59",20,-0.305751094280068,-0.0691903273756838,3264.58142602348,4629.34566054162,0.285313106191054,0.254640455532249,"6,15,254","255,6,50"
e0024DV,SameDayRecall,3,"2023,10,19,9,40,24.64",1,-0.291941485204561,-0.185340852249978,1946.55300126737,17613.1283712098,0.247863617491427,0.330729049981684,"57,7,255","253,7,6"
e0024DV,SameDayRecall,4,"2023,10,19,9,40,52.906",30,-0.0708663937131527,0.442376659699057,4429.88411571889,2311.86970804015,0.318714775761981,0.18614217377041,"255,7,225","255,7,105"
e0024DV,SameDayRecall,5,"2023,10,19,9,41,15.723",12,-0.322275091516115,0.491643310433536,2865.20586042866,11111.3516040168,-0.0553540573579123,0.432282716921824,"255,8,27","36,255,9"
e0024DV,SameDayRecall,6,"2023,10,19,9,41,42.655",27,-0.482693018612036,0.178895153043456,2696.01475136119,4028.35496401008,0.187275594736504,0.263499652155714,"6,199,254","255,86,10"
e0024DV,SameDayRecall,7,"2023,10,19,9,42,0.621",17,-0.00422743583538197,-0.127895396047611,3179.05056880613,2778.46390426635,-0.349056081061532,0.358196996244185,"7,112,254","8,103,254"
e0024DV,SameDayRecall,8,"2023,10,19,9,42,18.171",15,-0.44695420641655,-0.482600012846487,1978.97057176192,3112.12430273849,0.314852273257151,0.147885854354176,"9,255,248","253,6,97"
e0024DV,SameDayRecall,9,"2023,10,19,9,42,40.454",4,-0.307294621475194,0.185466349821953,6129.15710445895,1078.60442693323,-0.443904407241451,0.311951145085189,"6,255,254","227,7,255"
e0024DV,SameDayRecall,10,"2023,10,19,9,42,56.637",14,-0.291628120081818,-0.097840998057975,4462.06386508879,2978.639498951,0.0189526866162647,0.248849600847407,"7,233,255","171,255,11"
e0024DV,SameDayRecall,11,"2023,10,19,9,43,17.119",23,-0.00431604342231376,-0.286773264365816,6328.92626254875,3511.93035096071,-0.373858656549834,0.454698984906696,"7,69,255","6,63,255"
e0024DV,SameDayRecall,12,"2023,10,19,9,43,45.285",21,-0.47709002492246,-0.0994911578945639,778.837790744547,1445.22900326865,-0.330617201822943,0.330776705459783,"255,159,8","5,138,254"
e0024DV,SameDayRecall,13,"2023,10,19,9,44,4.619",10,-0.126953911654057,0.138106441319298,3812.31133395067,2245.42348288583,-0.479767466695869,0.210685379371388,"7,33,255","169,5,253"
e0024DV,SameDayRecall,14,"2023,10,19,9,44,18.935",26,-0.487383815753334,-0.309560159090122,3028.96579187973,678.589588771729,-0.393794237975313,0.43130113641351,"253,240,8","8,33,255"
e0024DV,SameDayRecall,15,"2023,10,19,9,44,30.852",24,-0.255216829306428,-0.308235886956613,2446.22632712117,5295.77030291557,-0.410892912273756,0.245608399342909,"9,254,115","5,14,255"
e0024DV,SameDayRecall,16,"2023,10,19,9,44,50.368",6,0.359540013302416,0.194707383456199,2762.25981092784,4678.54794808159,0.376911374163774,0.39052000349364,"254,6,19","7,58,255"
e0024DV,SameDayRecall,17,"2023,10,19,9,45,10.451",7,-0.00192889723780896,0.152840668004175,5228.76310142192,3178.50660063596,0.361479973958601,0.404998538530323,"255,7,183","254,6,183"
e0024DV,SameDayRecall,18,"2023,10,19,9,45,28.435",8,-0.339367878387474,-0.285136440761356,3512.28810900238,3311.8688283073,0.208982776384597,0.360931779213167,"9,255,70","255,52,9"
e0024DV,SameDayRecall,19,"2023,10,19,9,45,46.317",13,-0.101550628417758,0.106903343431905,995.770830755191,4778.70641729965,-0.0848629436666452,0.403146876955049,"9,255,168","10,255,13"
e0024DV,SameDayRecall,20,"2023,10,19,9,46,0.651",18,-0.132128746194095,0.0919433980711145,1595.42697249321,7111.7424986644,-0.169483463939854,0.420209393158474,"5,191,255","9,255,141"
e0024DV,SameDayRecall,21,"2023,10,19,9,46,17.65",11,-0.286490093329524,-0.324376533479132,1029.04643406146,6345.07112053939,0.264333933147191,0.294075140046974,"40,7,254","255,7,21"
e0024DV,SameDayRecall,22,"2023,10,19,9,46,43.434",16,-0.368810748084974,-0.311822605880047,3578.77744106804,1461.66387986818,-0.0614541299715232,0.332956630942769,"246,6,254","237,255,9"
e0024DV,SameDayRecall,23,"2023,10,19,9,46,56.1",25,0.0496345750173703,-0.235300482631105,1762.28854886904,2295.54362507429,0.410564480651169,0.247885181765982,"255,7,181","255,5,250"
e0024DV,SameDayRecall,24,"2023,10,19,9,47,11.883",28,-0.169970747878034,-0.350702515488024,3878.74201715704,2028.54088089407,-0.259125730548924,0.26539460371619,"8,255,16","8,246,255"
e0024DV,SameDayRecall,25,"2023,10,19,9,47,26.7",19,-0.438671401799074,0.179744071809929,2278.82782043821,1795.22164283662,-0.249906816996395,0.277639170730017,"254,6,91","6,255,254"
e0024DV,SameDayRecall,26,"2023,10,19,9,47,39.366",3,-0.0650775997894269,0.132660707376586,2845.74822162017,3461.85918056995,0.402999679654467,0.397942973242301,"6,125,255","8,22,255"
e0024DV,SameDayRecall,27,"2023,10,19,9,47,55.683",9,0.142541494197907,0.276836341511132,4128.70785419659,3078.38889237519,0.228732986812517,0.373744154572737,"255,247,10","254,25,6"
e0024DV,SameDayRecall,28,"2023,10,19,9,48,13.399",29,-0.336633058676588,0.0112346770989289,5145.3521072242,5528.45584004808,-0.408707276049616,0.130643847845855,"7,251,255","254,6,246"
e0024DV,SameDayRecall,29,"2023,10,19,9,48,35.015",2,-0.260825901713228,-0.393768474672276,3212.03204808285,4228.52674651904,-0.404000042856585,0.385584133850553,"255,166,8","254,6,242"
e0024DV,SameDayRecall,30,"2023,10,19,9,48,50.299",5,-0.0607697386305435,0.193045372742965,2978.91632156711,2528.53003085511,0.0964645385236131,0.410104147950692,"253,141,9","254,238,8"
e0024DV,NextDayRecall,1,"2023,10,20,10,14,46.568",13,-0.246343241083404,0.186683749300872,1665.95163114607,156.395716590221,-0.432756813167808,0.482927282824016,"9,255,168","19,7,255"
e0024DV,NextDayRecall,2,"2023,10,20,10,14,59.794",27,-0.419458181133717,-0.387216757852299,2163.77470721422,13296.5513783079,0.285124394990751,0.170388436948531,"6,199,254","255,7,49"
e0024DV,NextDayRecall,3,"2023,10,20,10,15,23.375",16,0.105556242107225,-0.239105897223016,13313.1890769942,33246.203982479,0.464178879836278,0.405673339599801,"246,6,254","62,7,255"
e0024DV,NextDayRecall,4,"2023,10,20,10,16,35.48",22,-0.199963501123532,-0.28107635264166,4146.63555504596,7645.36535284877,-0.187364388391723,0.251287132382002,"160,255,11","9,255,170"
e0024DV,NextDayRecall,5,"2023,10,20,10,16,54.143",30,-0.156653651531301,0.00814384995130121,5182.68155621837,3711.88271736176,0.232927517943833,0.264378335879948,"255,7,225","254,20,9"
e0024DV,NextDayRecall,6,"2023,10,20,10,17,12.974",29,-0.371479024474832,-0.0214899154430688,695.931804672455,8662.19571524127,0.373861310251372,0.0979192553038577,"7,251,255","255,6,198"
e0024DV,NextDayRecall,7,"2023,10,20,10,17,30.123",20,-0.0574650411975933,0.063966624429708,4011.98092599984,795.081181213249,-0.351470758331285,0.387797407337641,"6,15,254","7,100,255"
e0024DV,NextDayRecall,8,"2023,10,20,10,17,43.189",1,-0.313529505760594,-0.217933589466096,6845.92768454297,2411.83054860477,-0.226275596935394,0.298136312765566,"57,7,255","254,26,8"
e0024DV,NextDayRecall,9,"2023,10,20,10,18,5.205",10,-0.240823823230492,0.498165171449549,1645.83190986036,3028.51716099911,0.365897555119434,0.42558623339746,"7,33,255","254,7,186"
e0024DV,NextDayRecall,10,"2023,10,20,10,18,17.689",18,-0.121392052368957,0.0572485854919741,2428.95210591402,3045.38593883382,0.423004262502906,0.385514580579334,"5,191,255","10,5,254"
e0024DV,NextDayRecall,11,"2023,10,20,10,18,37.339",12,-0.423245741721781,0.0948848268836343,7496.0457020598,3278.74332824939,-0.309833224120016,0.170958799528275,"255,8,27","7,175,254"
e0024DV,NextDayRecall,12,"2023,10,20,10,18,55.605",24,-0.341394690339248,-0.313629300772975,4379.37800413891,14511.7960333563,0.18571860737192,0.25100181315927,"9,254,115","255,90,9"
e0024DV,NextDayRecall,13,"2023,10,20,10,19,22.355",23,-0.0961802689325632,-0.220427995997813,2878.84150756275,3478.73030805374,0.465722882060084,0.0525022754569339,"7,69,255","68,6,255"
e0024DV,NextDayRecall,14,"2023,10,20,10,19,40.254",25,-0.165868733303108,-0.219975744914211,5045.53520188784,2561.93258412469,-0.473201361063093,0.263209919482877,"255,7,181","78,7,254"
e0024DV,NextDayRecall,15,"2023,10,20,10,19,55.404",4,-0.189124170848742,0.0456166476786666,3912.22188759411,3929.19770082114,0.437925142132097,0.172101442941903,"6,255,254","27,5,254"
e0024DV,NextDayRecall,16,"2023,10,20,10,20,11.321",14,-0.184047360558491,-0.167707783846331,7628.87779695944,3261.9109131233,-0.456722794024044,0.17898281505905,"7,233,255","50,7,254"
e0024DV,NextDayRecall,17,"2023,10,20,10,20,32.521",8,-0.381088292865215,-0.299925837354714,9912.18904385721,8428.49082736012,-0.250703190862338,0.346142382619808,"9,255,70","253,7,10"
e0024DV,NextDayRecall,18,"2023,10,20,10,21,3.685",2,-0.0640994440939807,-0.199327849105359,4312.5489173737,15811.7323692915,-0.207273585237338,0.191143508283636,"255,166,8","255,54,9"
e0024DV,NextDayRecall,19,"2023,10,20,10,21,31.235",21,0.398076199303828,-0.270570145307019,8895.90852080897,2478.22064363754,0.455450977596655,0.159697718047328,"255,159,8","50,6,255"
e0024DV,NextDayRecall,20,"2023,10,20,10,21,50.768",17,-0.0173071386180007,-0.310899080145985,7246.12304612754,5461.93015016917,-0.36213578384415,0.175193312145811,"7,112,254","7,81,255"
e0024DV,NextDayRecall,21,"2023,10,20,10,22,11.585",3,-0.174210001634457,-0.289759728944535,3112.18687382461,3995.22299577694,-0.163712078230583,0.179636590436578,"6,125,255","9,253,128"
e0024DV,NextDayRecall,22,"2023,10,20,10,22,27.651",19,0.309801422715685,0.0821078995167707,6845.46787222729,3928.38951029694,0.378776796079785,0.180002998436858,"254,6,91","7,54,254"
e0024DV,NextDayRecall,23,"2023,10,20,10,22,51.418",6,-0.41768262182836,0.0331022436624407,8128.62516410871,3695.24619166606,-0.31876876563783,0.228914863699881,"254,6,19","9,158,255"
e0024DV,NextDayRecall,24,"2023,10,20,10,23,13.334",5,0.33853598999206,-0.0110382320650508,2345.79029801887,11711.6923996367,0.181301712837903,0.206020543142676,"253,141,9","9,254,159"
e0024DV,NextDayRecall,25,"2023,10,20,10,23,39.25",26,-0.410612027050816,-0.193987389453076,12462.2365939637,4261.64229827577,-0.495798395171163,0.0722464121296875,"253,240,8","121,7,255"
e0024DV,NextDayRecall,26,"2023,10,20,10,24,4.45",15,-0.196290906433824,-0.0495953925103606,10395.4327264964,5828.6627291327,0.434484426760123,0.419109525309697,"9,255,248","19,7,255"
e0024DV,NextDayRecall,27,"2023,10,20,10,24,29.617",11,0.0462459474249652,-0.264978840983566,1895.55457089511,4145.34291940356,0.402930026098319,0.234677447551408,"40,7,254","7,22,255"
e0024DV,NextDayRecall,28,"2023,10,20,10,24,43.333",28,-0.285869234310382,-0.397147673118894,3012.24748811398,3545.13770469782,-0.375024216981272,0.21894944608532,"8,255,16","7,61,255"
e0024DV,NextDayRecall,29,"2023,10,20,10,25,2.299",9,-0.478398132429774,0.139052213895074,4862.1718448826,5244.98729797801,-0.392206639815163,0.23596002695668,"255,247,10","8,34,255"
e0024DV,NextDayRecall,30,"2023,10,20,10,25,21.082",7,-0.32111865318333,0.335268566304645,4979.01138592647,6311.79585740767,-0.31547247562026,0.412573563169207,"255,7,183","10,165,255"
e0013LW,Encoding,1,"2021,10,1,14,8,55.705",32,-0.0185764888706477,-0.00301089995881225,8698.10654035197,14303.3975180251,0.257305355495926,0.412275383541948,"9,255,248","5,248,255"
e0013LW,Encoding,2,"2021,10,1,14,9,27.565",15,-0.0918566272445299,0.0178874159414473,4413.11489639474,8103.02609272963,0.033785013987691,0.143138041774069,"34,254,9","197,255,12"
e0013LW,Encoding,3,"2021,10,1,14,9,48.578",6,-0.136202740635221,-0.0425047326061525,4044.69361225324,9147.52381670135,0.052514117513007,0.378792652936242,"9,254,9","226,254,12"
e0013LW,Encoding,4,"2021,10,1,14,10,10.373",1,0.110815802660217,0.0187645178583776,4396.99634058405,8095.5908421642,0.191834404871731,0.382675936254211,"8,188,255","9,254,180"
e0013LW,Encoding,5,"2021,10,1,14,10,31.277",33,0.0297562349752421,-0.0501442577166417,3399.70681271879,7696.9218267931,0.0345796722158038,0.106148194148095,"146,255,11","199,254,9"
e0013LW,Encoding,6,"2021,10,1,14,10,50.83",9,0.0169105838984679,0.00726256890968321,3479.59345557192,7245.46297227624,0.436568164201448,0.286072343177815,"46,5,255","23,7,255"
e0013LW,Encoding,7,"2021,10,1,14,11,9.882",34,-0.0058720168384612,-0.024032408570085,3846.78691900283,6712.00463797763,0.124846188951442,0.0814640936721723,"254,187,8","255,198,10"
e0013LW,Encoding,8,"2021,10,1,14,11,28.958",12,-0.0363001217063685,0.0122905021424288,5296.39627143666,7395.42043695403,-0.340235687289301,0.299927654131957,"255,7,79","255,6,143"
e0013LW,Encoding,9,"2021,10,1,14,11,50.116",5,-0.0287044454480433,-0.00301201240084931,3796.44245767065,6862.24479173234,-0.0192657754580917,0.101913528538754,"47,255,11","98,254,10"
e0013LW,Encoding,10,"2021,10,1,14,12,9.233",7,-0.00827865171918575,-0.0149977460736192,4162.78228219818,7295.84614207124,0.303491066064185,0.151758748595151,"254,7,92","255,6,78"
e0013LW,Encoding,11,"2021,10,1,14,12,29.214",42,-0.00587092285341148,0.0166477759799594,2596.47717798885,7878.73489013686,-0.39164416662674,0.387140926089602,"5,45,254","8,34,255"
e0013LW,Encoding,12,"2021,10,1,14,12,48.164",45,-0.00737296164707901,0.0193765822491982,2712.71165391585,7195.45427753439,-0.394932694417401,0.0495459385469281,"7,22,255","9,31,255"
e0013LW,Encoding,13,"2021,10,1,14,13,6.463",10,0.0193446451754919,-0.00213522106417216,3929.46057117854,7145.48634397687,0.180768173276923,0.0970879860672815,"253,135,8","255,98,8"
e0013LW,Encoding,14,"2021,10,1,14,13,25.981",30,-0.00616608744338391,0.0029515801505984,4246.73155417117,7412.0046673022,-0.105544413788844,0.376025924225898,"253,216,9","255,225,9"
e0013LW,Encoding,15,"2021,10,1,14,13,46.114",11,-0.0168782964565592,-0.0110979946316006,2246.19520736445,7295.33589415229,0.353142607293508,0.285937065761573,"6,127,255","6,98,254"
e0013LW,Encoding,16,"2021,10,1,14,14,4.047",19,0.00664498025861333,-0.0114348594532804,11845.8409076313,6995.4171525996,0.0695965137026507,0.466311587679126,"240,255,9","247,255,8"
e0013LW,Encoding,17,"2021,10,1,14,14,31.448",14,0.0271132557769045,0.0174408912547143,3246.11251201213,9895.34023419208,0.441340328397397,0.387936132575788,"69,7,254","28,6,255"
e0013LW,Encoding,18,"2021,10,1,14,14,53.03",13,-0.00146526610855124,-0.0181128396349106,4230.13588723165,6862.09347683223,0.372659359392139,0.414899596600375,"255,6,201","255,7,200"
e0013LW,Encoding,19,"2021,10,1,14,15,12.446",21,0.0506830923001354,-0.00288853291061426,4362.6141349817,7212.07076493494,0.412154253655951,0.301418531691601,"254,6,183","254,6,249"
e0013LW,Encoding,20,"2021,10,1,14,15,32.496",31,-0.0815634078079064,-0.0243086042389418,3563.06180421905,7128.6909765588,0.42234909281214,0.360957651463167,"121,6,254","251,7,253"
e0013LW,Encoding,21,"2021,10,1,14,15,51.63",17,-0.00360109748701876,0.00427043787517979,2529.40098360546,6945.40992408747,-0.0373514949640687,0.250025446153412,"59,255,11","65,255,10"
e0013LW,Encoding,22,"2021,10,1,14,16,9.579",35,0.039784283776603,-0.00555147440354873,1562.74333913859,7295.77605629379,0.350754536457726,0.24959673924976,"8,36,255","5,102,255"
e0013LW,Encoding,23,"2021,10,1,14,16,26.928",25,-0.0162743244256489,0.00475861768436786,4312.84795462432,7678.69072729968,-0.282454801871937,0.291745406774568,"7,193,255","6,220,254"
e0013LW,Encoding,24,"2021,10,1,14,16,47.396",41,-0.470305448208269,0.0170909527327997,8179.65653277156,10645.3287242894,-0.493875202369897,0.194783431821613,"203,255,7","117,7,255"
e0013LW,Encoding,25,"2021,10,1,14,17,14.647",18,-0.110423181349019,-0.140578942330239,4329.72865660815,8928.69490605426,0.436501072898466,0.36774594285926,"9,147,254","23,7,255"
e0013LW,Encoding,26,"2021,10,1,14,17,36.345",37,-0.0729812449864075,0.0553470304420003,3579.54633095085,7178.75832048674,-0.22921668920954,0.121831250250745,"254,7,77","254,24,8"
e0013LW,Encoding,27,"2021,10,1,14,17,55.563",2,-0.0190040476259367,-0.0825944396162763,5979.58363183329,7945.24013469379,-0.414786174490474,0.458725730428205,"240,7,255","254,5,250"
e0013LW,Encoding,28,"2021,10,1,14,18,17.878",3,-0.0430945228954406,0.0222701599167092,5313.27990587976,7412.11052908318,-0.0455212199343078,0.150107948858214,"130,255,10","51,255,10"
e0013LW,Encoding,29,"2021,10,1,14,18,39.077",29,-0.00447819704974748,0.00890727150607981,3379.37313990438,7745.32851901722,0.174964115229612,0.257258399300533,"255,101,7","254,109,10"
e0013LW,Encoding,30,"2021,10,1,14,18,58.612",26,0.219098636978119,-0.0188935496092413,4363.43698306246,6978.76400945779,0.279845972151485,0.367739797625423,"127,6,254","6,223,255"
e0013LW,Encoding,31,"2021,10,1,14,19,18.411",38,-0.0143035075541736,0.0173534132449874,3496.07798230375,6412.07094088247,0.365367062924485,0.173029760498612,"255,7,209","254,7,186"
e0013LW,Encoding,32,"2021,10,1,14,19,36.578",22,-0.0084585905268982,0.0191970209998471,3879.60846976353,6995.38988072811,0.135178925458623,0.103314962989502,"255,166,9","255,179,11"
e0013LW,Encoding,33,"2021,10,1,14,19,55.977",20,0.0140902516554937,0.00476086489786725,4746.41558168116,6995.46465844037,0.410337516105121,0.244578139668789,"255,6,232","255,5,250"
e0013LW,Encoding,34,"2021,10,1,14,20,16.244",39,0.0065373978831016,0.0592543903270114,4212.68687463475,6711.88470039215,0.154353488702314,0.0615961087235806,"253,158,6","254,147,8"
e0013LW,Encoding,35,"2021,10,1,14,20,36.344",43,0.0182736737098739,-0.0122865945516584,3346.11846490452,6745.34406105147,0.273502050973802,0.393353418049475,"255,7,15","255,7,31"
e0013LW,Encoding,36,"2021,10,1,14,20,54.896",23,0.0246484131655461,0.00645037591529191,4279.09798724795,7462.04884480164,0.201270850357938,0.475894172563481,"7,255,231","8,255,194"
