participant_id,session,trial_num,trial_date_time,condition,error_color,error_position,rt_color,rt_location,chosen_color,chosen_position,true_RGB,chosen_RGB
e0010GP,Encoding,1,"2020,11,12,10,37,5.359",29,-0.314002056979376,-1.7876697978625,6380.60042004065,13387.9300182455,-0.233510536979376,6.2030682478625,"160,255,11","67,255,10"
e0010GP,Encoding,2,"2020,11,12,10,37,33.887",19,-0.411586984144903,0.0488328821173232,4496.44296754451,9515.36972317314,0.463634625855097,2.53070080788268,"254,173,7","251,255,10"
e0010GP,Encoding,3,"2020,11,12,10,37,56.358",1,-5.57791397785315,-0.0665077505651537,3477.92323261228,9597.27120187813,-0.316320947853151,2.75623785056515,"10,255,125","43,255,10"
e0010GP,Encoding,4,"2020,11,12,10,38,17.869",3,-0.169150023028761,-0.0644722624114378,3963.883071282,9278.8821944867,1.55997825697124,2.28215885241144,"255,7,36","253,7,8"
e0010GP,Encoding,5,"2020,11,12,10,38,39.596",24,-4.63975134055331,3.80025874737186,4083.49701156498,20412.9465424647,-5.3087490477329,0.473987112628137,"11,255,35","254,145,10"
e0010GP,Encoding,6,"2020,11,12,10,39,12.6",20,-6.26638532740036,0.186998113405612,5129.66893499584,13028.8037520975,-0.966828327400362,5.77019156659439,"10,255,116","12,255,115"
e0010GP,Encoding,7,"2020,11,12,10,39,39.188",11,-6.25948371420717,-0.0242630428758872,2896.76834950762,8262.09581642547,-3.50419443420717,0.244330262875887,"234,6,255","231,5,254"
e0010GP,Encoding,8,"2020,11,12,10,39,58.914",8,-6.23611535211571,0.0227829229571674,3496.26614227077,9245.19976564056,-4.37162375211571,2.30824410704283,"255,6,66","255,7,79"
e0010GP,Encoding,9,"2020,11,12,10,40,20.118",10,-0.614104832631442,0.040522962669878,10362.3645439227,13611.7981458858,0.235860037368558,1.95886215733012,"255,179,11","205,255,9"
e0010GP,Encoding,10,"2020,11,12,10,40,52.604",30,-0.225448472180006,-6.22372432721048,2679.67852402796,8445.98325115703,2.59325499781999,6.27398009721048,"222,6,255","254,6,249"
e0010GP,Encoding,11,"2020,11,12,10,41,12.266",22,-0.754649945999102,0.049161848530944,4696.17253924025,8478.51910152815,3.4876602840009,1.49436376146906,"7,149,255","33,7,254"
e0010GP,Encoding,12,"2020,11,12,10,41,33.957",13,-0.188922393832338,-0.03295716221497,4246.50410862171,9411.93808124342,1.43402440616766,4.37005858221497,"254,7,17","255,26,7"
e0010GP,Encoding,13,"2020,11,12,10,41,55.966",16,-0.128465800108085,-0.0525570750700135,3662.81648938195,8211.98828437264,1.41183008989191,5.80708819507001,"255,10,6","255,30,6"
e0010GP,Encoding,14,"2020,11,12,10,42,16.266",6,0.528774011484296,-0.00431099351085917,3596.17124897295,9395.25111241574,1.8534750714843,2.06802812351086,"254,49,7","255,6,63"
e0010GP,Encoding,15,"2020,11,12,10,42,37.716",23,-0.110689519137988,-0.0055821834464701,3829.57064008406,8845.32685697332,1.22153637086201,0.57532710344647,"255,47,8","253,76,6"
e0010GP,Encoding,16,"2020,11,12,10,42,58.849",4,-0.752721181608039,0.0232022058184125,3012.83346812715,8195.30219527258,2.16089788839196,3.40360073418159,"197,5,255","255,6,151"
e0010GP,Encoding,17,"2020,11,12,10,43,18.517",12,-0.186784959246515,-0.0409664782305383,3629.57568385639,8445.49294956869,4.52564205075348,2.31326301823054,"6,255,254","6,223,255"
e0010GP,Encoding,18,"2020,11,12,10,43,39.047",28,-6.0775005438263,0.0412881111014185,7229.45263927124,11512.2434640627,-4.7538841138263,5.78718653889858,"253,50,7","255,10,6"
e0010GP,Encoding,19,"2020,11,12,10,44,6.166",27,-0.101379336004018,0.0360606048623557,4646.61014513752,8962.00045393948,-1.6400516931836,5.30478659513764,"9,255,250","9,244,255"
e0010GP,Encoding,20,"2020,11,12,10,44,28.215",5,0.157632142886928,-0.0518212899967558,3579.44791806563,8328.60030039774,2.58453312288693,6.03971941999676,"254,6,221","255,5,250"
e0010GP,Encoding,21,"2020,11,12,10,44,48.646",17,-0.59265425778161,0.0196433415837891,14845.9288839832,7428.62358385833,2.41237707221839,2.56715377841621,"171,6,254","255,5,214"
e0010GP,Encoding,22,"2020,11,12,10,45,19.332",7,-1.62754966943149,2.11153004307446,4579.68163239923,12294.9747606114,1.13731906056851,0.49622819692554,"232,7,255","255,98,10"
e0010GP,Encoding,23,"2020,11,12,10,45,44.64",15,-0.31786256794026,-0.0154535397318726,2813.29978247265,10645.1409998282,2.55298439205974,0.666839649731873,"210,5,254","255,7,243"
e0010GP,Encoding,24,"2020,11,12,10,46,6.496",9,-3.6117743518869,-0.00904458241838779,4812.97311024218,15628.3994878811,-3.65874818906649,0.425332662418388,"121,255,8","255,7,255"
e0010GP,Encoding,25,"2020,11,12,10,46,35.429",2,-0.646536295430349,0.00267932927347392,3663.07073069606,9328.61701522461,-0.660135952609936,5.62647759072653,"130,255,10","12,255,34"
e0010GP,Encoding,26,"2020,11,12,10,46,56.862",14,-0.0587566555662704,-0.0152426743089293,4280.04607427351,8978.62261615774,-2.60894572274586,6.25949670430893,"7,18,255","6,10,255"
e0010GP,Encoding,27,"2020,11,12,10,47,18.511",25,-0.794568632042401,0.0990152600311305,6146.14858132177,12145.1858659423,2.3323636679576,3.06039591996887,"133,6,255","255,6,194"
e0010GP,Encoding,28,"2020,11,12,10,47,45.262",18,-5.09930543025488,0.319465092318971,2429.32560658687,10245.2490303933,-3.42250173025488,2.82041139768103,"255,8,27","211,6,255"
e0010GP,Encoding,29,"2020,11,12,10,48,6.327",21,-0.0415043172336222,0.101224768730436,3362.93695343238,7678.67915332658,-0.416632754413208,0.728915921269564,"30,255,9","22,254,8"
e0010GP,Encoding,30,"2020,11,12,10,48,25.704",26,0.345517467252693,0.045911049850428,3096.16215845313,8395.22999895007,0.533132187252693,4.73223573014957,"192,253,9","255,248,9"
e0010GP,SameDayRecall,1,"2020,11,12,10,51,10.364",1,-5.91726917645969,-3.59001217197781,7147.08842378013,5726.59176469278,-0.655676146459685,6.27974227197781,"10,255,125","10,254,32"
e0010GP,SameDayRecall,2,"2020,11,12,10,51,31.976",2,-5.92011348546238,0.087350604248801,3329.76623288255,7748.59199576804,0.349472164537621,5.5418063157512,"130,255,10","233,255,8"
e0010GP,SameDayRecall,3,"2020,11,12,10,51,51.513",3,-2.42908827408044,-0.269894827465102,6278.58279381576,5481.8544425957,-0.699959994080444,2.4875814174651,"255,7,36","8,255,42"
e0010GP,SameDayRecall,4,"2020,11,12,10,52,11.708",4,-2.55739424777452,-2.82065786256632,9296.91925213751,3795.61754833958,0.35622482222548,6.24746080256632,"197,5,255","234,254,9"
e0010GP,SameDayRecall,5,"2020,11,12,10,52,33.214",5,-4.24258170933013,5.57079637610046,3532.87513203259,5295.58441192853,-1.81568072933013,0.417101753899538,"254,6,221","8,208,255"
e0010GP,SameDayRecall,6,"2020,11,12,10,52,50.472",6,1.20130792827793,-4.19714367834479,6846.32358849171,5145.98729790441,2.52600898827793,6.26086080834479,"254,49,7","254,7,238"
e0010GP,SameDayRecall,7,"2020,11,12,10,53,10.81",7,-2.1457832079361,0.0174929104245249,3063.09993765672,7995.55796144796,0.619085522063899,2.59026532957547,"232,7,255","254,234,10"
e0010GP,SameDayRecall,8,"2020,11,12,10,53,30.308",8,-0.364729632324708,0.868905927038252,3229.97461105774,4628.74873979013,1.49976196767529,1.46212110296175,"255,6,66","254,15,8"
e0010GP,SameDayRecall,9,"2020,11,12,10,53,46.555",9,-0.44018049639191,-0.359676235345268,4329.93250142363,3512.37571646493,-0.487154333571496,0.775964315345268,"121,255,8","11,255,10"
e0010GP,SameDayRecall,10,"2020,11,12,10,54,2.805",10,-1.68774625189466,-4.26973070226218,4929.71239354552,5628.97453657411,-0.83778138189466,6.26911582226218,"255,179,11","10,253,76"
e0010GP,SameDayRecall,11,"2020,11,12,10,54,21.941",11,-3.05971150838404,-4.47970536667896,4630.31582812005,4428.69132289343,-0.304422228384037,4.69977258667896,"234,6,255","46,254,10"
e0010GP,SameDayRecall,12,"2020,11,12,10,54,39.337",12,-1.2042394705972,1.93009703759151,3046.44698496782,6095.29914554969,-2.77499776777678,0.342199502408493,"6,255,254","28,6,255"
e0010GP,SameDayRecall,13,"2020,11,12,10,54,56.854",13,-3.95738315514835,0.159109759642831,4329.38208510723,6678.67944656905,-2.33443635514835,4.17799166035717,"254,7,17","6,66,255"
e0010GP,SameDayRecall,14,"2020,11,12,10,55,16.22",14,-3.0438442837942,1.85278518335942,2046.37836620486,7078.73181969353,0.689151956205801,4.39146884664058,"7,18,255","255,220,8"
e0010GP,SameDayRecall,15,"2020,11,12,10,55,33.686",15,-0.11223124268314,-5.59943747777192,9529.35710083966,4428.74909168108,2.75861571731686,6.25082358777192,"210,5,254","233,7,255"
e0010GP,NextDayRecall,1,"2020,11,13,10,26,29.358",1,-1.34549919451733,2.26491833173029,4414.88408346203,4007.98240299625,-2.36709147169692,0.424811768269711,"10,255,125","6,60,254"
e0010GP,NextDayRecall,2,"2020,11,13,10,26,46.536",2,-4.80124729341238,-0.575652481694904,4713.34812848558,5869.52182998516,1.46833835658762,6.2048094016949,"130,255,10","254,20,9"
e0010GP,NextDayRecall,3,"2020,11,13,10,27,5.548",3,-3.32649602550244,-2.4845879034923,5077.72264133349,4582.18787223697,-1.59736774550244,4.7022744934923,"255,7,36","7,251,255"
e0010GP,NextDayRecall,4,"2020,11,13,10,27,23.638",4,-5.50962741962915,1.18230952312128,6847.14787664737,5695.55611728129,-2.59600834962915,2.24449341687872,"197,5,255","6,11,254"
e0010GP,NextDayRecall,5,"2020,11,13,10,27,44.652",5,-4.19055077247825,5.40305491456493,4566.64445829861,4328.95675995547,-1.76364979247825,0.584843215435071,"254,6,221","6,222,255"
e0010GP,NextDayRecall,6,"2020,11,13,10,28,2.056",6,-5.00262905993781,1.38163271605738,4646.22011034194,6295.54245209707,-3.67792799993781,0.682084413942622,"254,49,7","254,5,250"
e0010GP,NextDayRecall,7,"2020,11,13,10,28,21.343",7,-3.04528607530637,-2.83905173733763,5080.39908202804,5646.01806502162,-0.28041734530637,5.44680997733763,"232,7,255","52,255,9"
e0010GP,NextDayRecall,8,"2020,11,13,10,28,40.46",8,-1.41886294368722,1.18907052714766,7046.13172651099,6028.75055056617,0.445628656312783,1.14195650285234,"255,6,66","248,254,9"
e0010GP,NextDayRecall,9,"2020,11,13,10,29,1.878",9,-5.86320735478703,-2.67973768982519,4413.31141429964,8045.40624012131,0.373004115212966,3.09602576982519,"121,255,8","236,254,8"
e0010GP,NextDayRecall,10,"2020,11,13,10,29,22.726",10,-3.23704475159253,0.0483279817357216,5512.84322045578,11945.2600871639,-2.38707988159253,1.95105713826428,"255,179,11","8,52,252"
e0010GP,NextDayRecall,11,"2020,11,13,10,29,48.527",11,1.35601782090598,-4.46726530463668,3279.69347760171,3578.64254869173,4.11130710090598,4.68733252463668,"234,6,255","9,109,254"
e0010GP,NextDayRecall,12,"2020,11,13,10,30,3.74",12,1.33744138971961,-3.86567696345856,3512.82093388926,4895.32791456975,6.04986839971961,6.13797350345856,"6,255,254","67,255,10"
e0010GP,NextDayRecall,13,"2020,11,13,10,30,20.474",13,-1.15359673953746,-0.978629109069251,2963.09109985964,8362.04468691187,0.469350060462544,5.31573052906925,"254,7,17","251,255,10"
e0010GP,NextDayRecall,14,"2020,11,13,10,30,40.174",14,-2.69752406203184,3.43180343446204,4146.2459158401,3928.68005463726,1.03547217796816,2.81245059553796,"7,18,255","255,127,7"
e0010GP,NextDayRecall,15,"2020,11,13,10,30,56.673",15,0.62361495257994,-5.54608305843221,2946.78085208579,9562.31324003869,3.49446191257994,6.1974691684322,"210,5,254","29,6,254"
e0010GP,NextDayRecall,16,"2020,11,13,10,31,17.542",16,-2.23715131367294,4.343251520201,3429.70611643091,5312.17468210855,-0.69685542367294,1.411279599799,"255,10,6","8,255,42"
e0010GP,NextDayRecall,17,"2020,11,13,10,31,34.622",17,-0.877794631592611,-2.12207507414929,3362.99479843268,4612.08559449119,2.12723669840739,4.70887219414929,"171,6,254","255,7,138"
e0010GP,NextDayRecall,18,"2020,11,13,10,31,50.99",18,-1.20779981662015,-2.20454521128553,5646.06439762048,10878.7203170792,0.469003883379848,5.34442170128553,"255,8,27","251,255,10"
e0010GP,NextDayRecall,19,"2020,11,13,10,32,15.893",19,-4.47660081233394,1.81383198669708,4112.91576909474,2562.14051914793,-3.60137920233394,0.765701703302923,"254,173,7","246,8,253"
e0010GP,NextDayRecall,20,"2020,11,13,10,32,30.923",20,-0.0615381254329472,5.48869046954237,3896.38418052584,3678.75028664633,-1.04516643261253,0.468499210457629,"10,255,116","9,255,133"
e0010GP,NextDayRecall,21,"2020,11,13,10,32,46.857",21,-5.81026721989354,-4.10710131310082,10396.2481151723,5828.80779185285,0.0977896501064652,4.93724200310082,"30,255,9","166,254,10"
e0010GP,NextDayRecall,22,"2020,11,13,10,33,11.481",22,-0.607537809046677,1.53510286919578,3663.07608575164,4328.74005242036,3.63477242095332,0.00842274080421676,"7,149,255","8,8,254"
e0010GP,NextDayRecall,23,"2020,11,13,10,33,27.89",23,-0.704214720230145,-3.87785947209076,3162.64472339145,3762.09324816739,0.628011169769855,4.44760439209076,"255,47,8","255,233,7"
e0010GP,NextDayRecall,24,"2020,11,13,10,33,43.206",24,-4.88200648123792,3.48070222484854,5263.0301636948,5428.77594552226,0.732181118762079,0.793543635151458,"11,255,35","255,211,9"
e0010GP,NextDayRecall,25,"2020,11,13,10,34,2.291",25,-5.35141130203778,1.63685549155697,5312.98667556575,4745.41028689259,-2.22447900203778,1.52255568844303,"133,6,255","6,96,255"
e0010GP,NextDayRecall,26,"2020,11,13,10,34,20.739",26,-3.24093031526253,4.04567683604852,4912.82580174459,3745.45691273579,-3.05331559526253,0.732469943951476,"192,253,9","103,6,255"
e0010GP,NextDayRecall,27,"2020,11,13,10,34,37.806",27,-2.14248659218507,0.488859020821843,4679.62943304735,7862.03119767424,2.60202635781493,4.85198817917816,"9,255,250","255,6,251"
e0010GP,NextDayRecall,28,"2020,11,13,10,34,58.772",28,-4.29846506761004,-0.403614066574498,4879.72995719224,3078.79855465751,-2.97484863761004,6.2320887165745,"253,50,7","78,7,254"
e0010GP,NextDayRecall,29,"2020,11,13,10,35,15.088",29,-1.26337785181134,-1.80449607757205,4679.69394679255,7511.99838363743,-1.18288633181134,6.21989452757205,"160,255,11","9,255,174"
e0010GP,NextDayRecall,30,"2020,11,13,10,35,35.622",30,-0.41150613370352,-5.28091538016726,3012.89160576471,4295.41283811796,2.40719733629648,5.33117115016726,"222,6,255","255,6,213"
e0011XQ,Encoding,1,"2021,1,17,10,42,39.998",3,-0.50174583024473,-0.0489725188719643,1863.77084355411,11237.6555926252,-0.542259637424316,0.422449578871964,"122,255,9","9,255,15"
e0011XQ,Encoding,2,"2021,1,17,10,43,1.989",17,0.0598091129635623,-0.0596736757939476,7363.04403351562,8098.80247159401,1.52778424296356,0.385613675793948,"254,20,9","255,10,5"
e0011XQ,Encoding,3,"2021,1,17,10,43,26.093",24,0.110562576636113,-0.11685179439034,2945.0357422802,8997.49010808171,1.02521165663611,1.62153756439034,"255,159,10","255,129,8"
e0011XQ,Encoding,4,"2021,1,17,10,43,46.434",23,-0.0920801799101723,-0.174571473759554,6247.28051055286,7645.79234610528,-1.23574483708976,5.76627640375955,"8,255,161","8,255,187"
e0011XQ,Encoding,5,"2021,1,17,10,44,8.747",1,-0.192128704841176,0.0242015512879492,5383.49764391558,7746.91468625463,-1.17011476202076,5.60567431871205,"9,254,115","9,255,168"
e0011XQ,Encoding,6,"2021,1,17,10,44,30.366",9,-0.0225742748416184,-0.0941883427424672,4746.17658624788,8145.43825164424,-1.1905335220212,2.14683757274247,"9,255,168","8,255,176"
e0011XQ,Encoding,7,"2021,1,17,10,44,51.696",6,0.222396708716522,0.0487337729803459,2129.528780182,7878.51554218094,3.62964888871652,2.33032462701965,"52,7,254","8,7,254"
e0011XQ,Encoding,8,"2021,1,17,10,45,10.087",2,-0.682890898893762,0.0453634020882842,3480.03332446751,7812.46922750517,-0.812403756073348,0.211078037911716,"96,254,10","9,255,68"
e0011XQ,Encoding,9,"2021,1,17,10,45,29.713",30,-6.17932869387028,0.0167572921753407,3346.62753983958,9112.0105615455,-1.16738153387028,0.698598777824659,"9,255,195","9,255,168"
e0011XQ,Encoding,10,"2021,1,17,10,45,50.583",26,0.416732276404122,-0.0589024975687806,3779.4136664919,7661.96456592127,0.614282946404122,3.91516975756878,"194,255,11","255,235,9"
e0011XQ,Encoding,11,"2021,1,17,10,46,10.816",29,-0.289118316922247,0.095861383214257,7996.94613688075,8128.74288108844,-2.99316252410183,5.84229411678574,"15,8,255","85,6,255"
e0011XQ,Encoding,12,"2021,1,17,10,46,35.267",11,-0.374592883538086,0.10369401136661,2263.08705269366,8428.53406066149,-4.98211181071767,0.72887391863339,"255,8,26","255,55,6"
e0011XQ,Encoding,13,"2021,1,17,10,46,54.355",16,-6.14359064384245,-0.176823816420093,3346.21201035623,7795.38941153464,-2.39809672384245,3.84716010642009,"9,21,255","8,50,255"
e0011XQ,Encoding,14,"2021,1,17,10,47,13.85",19,-5.76466358939137,-0.0759805234014168,3896.43462800427,8262.05834596976,-0.0917892693913713,5.34501314340142,"9,255,24","107,254,11"
e0011XQ,Encoding,15,"2021,1,17,10,47,34.365",14,-0.107780671746569,-0.0493539273189785,3296.46928967338,8545.38728550153,-1.73458960892615,2.17756465731898,"8,246,255","7,228,255"
e0011XQ,Encoding,16,"2021,1,17,10,47,54.513",4,0.243419142781757,0.0803780983096436,2496.31639124527,7761.88019906715,0.309589652781757,1.30177138169036,"155,254,11","222,255,10"
e0011XQ,Encoding,17,"2021,1,17,10,48,13.165",8,-0.298016887216712,0.216347263442386,2196.8680161649,7945.38147923208,4.73092713278329,4.40919840655761,"10,255,195","6,255,252"
e0011XQ,Encoding,18,"2021,1,17,10,48,31.735",25,-0.372502679658013,-0.273082700826338,3613.05407718874,7362.40475738737,2.58048325034199,5.46260709082634,"186,6,255","255,5,250"
e0011XQ,Encoding,19,"2021,1,17,10,48,51.098",18,-0.121431420283646,-0.0566430533228965,3279.73755662219,7078.76673664509,4.34248043971635,5.0818543633229,"7,207,255","6,177,255"
e0011XQ,Encoding,20,"2021,1,17,10,49,9.832",5,-6.2422351509362,-0.148104541044927,3279.41733206603,8295.39161087905,-1.3180974309362,5.09272179104493,"10,255,221","10,254,208"
e0011XQ,Encoding,21,"2021,1,17,10,49,29.78",13,0.275718744287586,0.0288685741280745,2313.61156702701,7212.0390943744,1.57419982428759,3.64261910587193,"255,55,6","253,7,10"
e0011XQ,Encoding,22,"2021,1,17,10,49,47.615",7,0.0531025296539537,-0.0421228690416195,2712.7098944402,7662.08626298226,0.463252709653954,1.74053955904162,"243,255,8","251,255,10"
e0011XQ,Encoding,23,"2021,1,17,10,50,6.348",12,-5.45696632090731,0.0261727383015957,3229.63912862565,7162.04652815873,-1.60753572090731,3.3189262416984,"8,42,254","7,250,255"
e0011XQ,Encoding,24,"2021,1,17,10,50,25.096",22,-0.293423450609072,0.139151111438435,5576.96195456628,7845.31951636723,4.38109538939093,1.14040422856156,"7,250,255","8,188,255"
e0011XQ,Encoding,25,"2021,1,17,10,50,46.897",10,-6.10787006001879,-0.0106231936118268,4996.26873878151,7978.70975896058,0.126570709981211,5.62962913361183,"121,255,8","173,255,12"
e0011XQ,Encoding,26,"2021,1,17,10,51,8.264",27,-6.0743596249607,-0.178472632806165,3129.53141939533,8245.36825384075,-1.5545033349607,1.99410713280617,"6,222,255","6,255,253"
e0011XQ,Encoding,27,"2021,1,17,10,51,27.996",20,-0.0155867870381545,0.0628606238954641,6396.07437537893,11395.318973862,-1.16684399421774,0.144460046104536,"9,255,165","9,255,168"
e0011XQ,Encoding,28,"2021,1,17,10,51,54.164",15,-0.899270019048411,0.0462678430838363,4279.85778745347,8028.68121146912,-0.845813319048411,0.479185416916164,"152,255,9","7,254,77"
e0011XQ,Encoding,29,"2021,1,17,10,52,14.831",28,-0.241757911316353,0.0707522922439074,4446.7068042145,7078.75793926701,3.97285922868365,1.04753800775609,"8,141,255","8,70,255"
e0011XQ,Encoding,30,"2021,1,17,10,52,34.713",21,0.526012915246865,0.0310271799715063,2929.86378433284,9262.03195383596,4.03925596524686,1.42610551002849,"27,6,255","6,91,253"
e0011XQ,SameDayRecall,1,"2021,1,17,10,54,5.823",1,-5.67948833139101,-0.364539568344172,5313.72124100517,11593.5887055743,-0.374289081391011,5.99441543834417,"9,254,115","30,255,9"
e0011XQ,SameDayRecall,2,"2021,1,17,10,54,31.415",2,-1.7781049954217,-0.491034290445314,3346.80143467654,4232.07336309383,4.3755674545783,0.747475730445314,"96,254,10","4,187,255"
e0011XQ,SameDayRecall,3,"2021,1,17,10,54,47.434",3,-4.76174618695114,-3.07207963119212,6228.20603576361,5115.31163098402,1.48092531304886,3.44555669119211,"122,255,9","255,18,7"
e0011XQ,SameDayRecall,4,"2021,1,17,10,55,7.178",4,5.0149462818273,0.231945641501239,7013.73827859379,4295.61828998339,5.0811167918273,1.15020383849876,"155,254,11","8,254,178"
e0011XQ,SameDayRecall,5,"2021,1,17,10,55,26.834",5,-0.0221968086813957,-0.454967332684983,6083.12671713838,3579.13520015654,4.9019409113186,5.39958458268498,"10,255,221","7,255,224"
e0011XQ,SameDayRecall,6,"2021,1,17,10,55,44.888",6,-4.37319143461513,1.60658739668838,6813.202635577,10745.7848096849,-0.965939254615128,0.772471003311619,"52,7,254","11,255,113"
e0011XQ,SameDayRecall,7,"2021,1,17,10,56,10.814",7,-0.145819112352893,-1.90976272519734,8712.79669523574,3578.99150965068,0.264331067647107,3.60817941519734,"243,255,8","211,255,11"
e0011XQ,SameDayRecall,8,"2021,1,17,10,56,31.429",8,-6.05145416067546,-0.992473047035229,2379.96754940536,4478.8685516321,-1.02251014067546,5.61801871703523,"10,255,195","10,255,125"
e0011XQ,SameDayRecall,9,"2021,1,17,10,56,46.679",9,-3.81874344046135,1.16429183521008,3579.87417990125,4195.47421825769,1.29648261953865,0.888357394789923,"9,255,168","255,56,7"
e0011XQ,SameDayRecall,10,"2021,1,17,10,57,2.777",10,-2.25357281501781,0.185377319870153,5229.84469402286,8745.41707928802,-2.3023173521974,5.43362862012985,"121,255,8","9,74,254"
e0011XQ,SameDayRecall,11,"2021,1,17,10,57,25.128",11,2.67541659690248,-4.70350142451097,2697.00012345652,3629.07586184247,4.35108297690248,5.53606935451097,"255,8,26","7,181,254"
e0011XQ,SameDayRecall,12,"2021,1,17,10,57,39.811",12,-4.90603459628757,-0.898321574465613,3863.25619694639,4045.43552445716,-1.05660399628757,4.24342055446561,"8,42,254","9,255,138"
e0011XQ,SameDayRecall,13,"2021,1,17,10,57,56.043",13,-3.37055166059776,-1.71668055444254,8629.46881138919,3695.5341870505,-2.07207058059776,5.38816823444254,"255,55,6","6,139,255"
e0011XQ,SameDayRecall,14,"2021,1,17,10,58,16.711",14,-0.55075781236594,1.65023404521901,3646.53777726039,12945.2424806611,4.10561855763406,0.477976684780989,"8,246,255","7,108,255"
e0011XQ,SameDayRecall,15,"2021,1,17,10,58,41.619",15,-1.29955308253268,-1.90021755802353,3529.86724463494,3128.74610679364,-1.24609638253268,2.42567081802353,"152,255,9","9,255,190"
e0011XQ,NextDayRecall,1,"2021,1,18,13,55,56.957",1,-1.77962609859884,5.24414632985535,6080.42826808657,9893.51712424269,3.52557315140116,0.385729540144649,"9,254,115","27,5,254"
e0011XQ,NextDayRecall,2,"2021,1,18,13,56,21.75",2,-3.78410378553606,-2.48589811821595,1079.96112731945,6615.53552425187,2.36956866446394,2.74233955821595,"96,254,10","255,6,207"
e0011XQ,NextDayRecall,3,"2021,1,18,13,56,37.992",3,-5.85867520321723,-1.46060193572631,6428.2390552554,6565.57844079379,0.383996296782766,1.83407899572631,"122,255,9","236,255,8"
e0011XQ,NextDayRecall,4,"2021,1,18,13,56,59.402",4,-1.15558945083754,-3.61134011947849,7947.04183769017,8162.25443952345,-1.08941894083754,4.99348959947849,"155,254,11","8,255,149"
e0011XQ,NextDayRecall,5,"2021,1,18,13,57,23.944",5,-1.52054486188836,-0.492946624043901,2349.76585778685,7195.83139180088,3.40359285811164,5.4375638740439,"10,255,221","55,6,255"
e0011XQ,NextDayRecall,6,"2021,1,18,13,57,41.963",6,-3.96170853669262,-0.16207874610205,4646.40552334572,6878.83400726139,-0.554456356692623,2.54113714610205,"52,7,254","8,255,16"
e0011XQ,NextDayRecall,7,"2021,1,18,13,58,1.836",7,-0.214576891867855,-0.515082052137266,3146.29130405586,8778.72072635842,0.195573288132145,2.21349874213727,"243,255,8","194,255,11"
e0011XQ,NextDayRecall,8,"2021,1,18,13,58,22.164",8,-4.64238367028486,1.45673785739022,7163.08139304715,5462.13681858075,0.386560349715138,3.16880781260978,"10,255,195","238,255,9"
e0011XQ,NextDayRecall,9,"2021,1,18,13,58,43.217",9,-3.69168584152141,-0.390043143377381,6080.4927821913,6895.42058357699,1.42354021847859,2.44269237337738,"9,255,168","253,26,7"
e0011XQ,NextDayRecall,10,"2021,1,18,13,59,4.585",10,-1.99130875895938,1.48329889853103,10596.2853951503,4528.76112098539,-2.04005329613896,4.13570704146897,"121,255,8","7,149,255"
e0011XQ,NextDayRecall,11,"2021,1,18,13,59,28.099",11,-3.15505829819493,-2.78921557291585,4796.11812767166,8045.45517193446,-1.47939191819493,3.62178350291585,"255,8,26","8,255,244"
e0011XQ,NextDayRecall,12,"2021,1,18,13,59,49.306",12,-3.97270829970845,-0.670943166261024,5679.72119349923,5628.71018416723,-0.12327769970845,4.01604214626102,"8,42,254","95,255,9"
e0011XQ,NextDayRecall,13,"2021,1,18,14,0,8.966",13,2.25786926520938,2.82390936727572,7562.99259817956,4128.97395888172,3.55635034520938,0.84757831272428,"255,55,6","19,7,255"
e0011XQ,NextDayRecall,14,"2021,1,18,14,0,29.016",14,0.851850525170905,-2.16044044721038,9562.97295070215,5228.80631018324,5.50822689517091,4.28865117721038,"8,246,255","8,255,59"
e0011XQ,NextDayRecall,15,"2021,1,18,14,0,52.167",15,0.311564064428559,-3.54121685031011,3262.86125332729,3495.53166513545,0.365020764428559,4.06667011031011,"152,255,9","235,254,7"
e0011XQ,NextDayRecall,16,"2021,1,18,14,1,7.248",16,-3.94878241859728,-1.76841314733323,2646.40435036199,9096.06766004708,-0.203288498597281,5.43874943733323,"9,21,255","74,255,12"
e0011XQ,NextDayRecall,17,"2021,1,18,14,1,27.402",17,2.18555623702531,-5.35779164109128,3829.87044101549,2345.52933383031,3.65353136702531,5.68373164109128,"254,20,9","6,6,254"
e0011XQ,NextDayRecall,18,"2021,1,18,14,1,41.913",18,-5.75198716285985,2.93348324886466,6930.40511632034,5512.09683449815,-1.28807530285985,2.09172806113534,"7,207,255","6,255,201"
e0011XQ,NextDayRecall,19,"2021,1,18,14,2,2.707",19,-6.23242206080836,4.74543844077024,8129.39711275919,9195.38360526519,-0.559547740808356,0.523594179229761,"9,255,24","8,255,16"
e0011XQ,NextDayRecall,20,"2021,1,18,14,2,28.449",20,-1.71422255770737,-3.99630280656981,3196.24310908717,7062.05846326816,3.41770554229263,4.20362347656981,"9,255,165","51,6,255"
e0011XQ,NextDayRecall,21,"2021,1,18,14,2,47.097",21,-5.30499665446748,-2.56404383042252,2962.93254141301,4178.61756244008,-1.79175360446748,4.02117652042252,"27,6,255","7,215,254"
e0011XQ,NextDayRecall,22,"2021,1,18,14,3,2.604",22,-1.40319248414988,-3.29099478980358,2546.18755364561,3878.79060686362,3.27132635585012,4.57055012980358,"7,250,255","91,6,255"
e0011XQ,NextDayRecall,23,"2021,1,18,14,3,17.397",23,-3.73783858314879,1.63205290246749,2062.85140026398,2312.13478052155,1.40168206685121,3.95965202753251,"8,255,161","255,32,6"
e0011XQ,NextDayRecall,24,"2021,1,18,14,3,30.071",24,-3.13318741759079,-1.22101643854781,8163.03535343604,4545.49637298771,-2.21853833759079,2.72570220854781,"255,159,10","6,98,254"
e0011XQ,NextDayRecall,25,"2021,1,18,14,3,51.143",25,-3.56018354772544,-0.355707458724311,2362.46575254097,6145.79689141715,-0.607197617725439,5.54523184872431,"186,6,255","9,255,23"
e0011XQ,NextDayRecall,26,"2021,1,18,14,4,8.046",26,2.89636286152561,-0.857982901210907,5029.56622768727,3445.49980396516,3.09391353152561,4.71425016121091,"194,255,11","144,7,255"
e0011XQ,NextDayRecall,27,"2021,1,18,14,4,24.912",27,-3.68845126331032,-2.00518525707623,4396.44503823479,3645.4841446324,0.831405026689676,3.82081975707623,"6,222,255","252,185,7"
e0011XQ,NextDayRecall,28,"2021,1,18,14,4,41.295",28,-5.37345787052086,-0.753905777943739,6379.78456394478,5645.40614121495,-1.15884073052086,1.87219607794374,"8,141,255","8,255,167"
e0011XQ,NextDayRecall,29,"2021,1,18,14,5,1.8",29,-0.000677473107825399,1.28567739732046,3479.61691524642,2712.1468622538,3.57846362689217,4.65247810267954,"15,8,255","15,8,255"
e0011XQ,NextDayRecall,30,"2021,1,18,14,5,16.345",30,-5.95787844500193,-4.2581228459569,7413.02897533706,4728.85836133594,-0.945931285001933,4.9734789159569,"9,255,195","9,254,104"
e0017MC,Encoding,1,"2023,3,1,11,30,50.729",13,0.269451050835959,0.0136754778546824,2248.65539015462,7888.39027159639,1.73355099083596,1.51493794214532,"254,20,9","255,6,36"
e0017MC,Encoding,2,"2023,3,1,11,31,7.942",9,-0.133463350536104,-0.288010139029681,2613.20220509856,8180.35234774851,-3.78875700771569,2.38660567902968,"255,7,255","255,5,232"
e0017MC,Encoding,3,"2023,3,1,11,31,25.541",10,0.416795647012548,0.193856152182575,1927.82258099987,7346.95054128957,5.87469619701255,5.78053050781743,"9,255,70","22,254,8"
e0017MC,Encoding,4,"2023,3,1,11,31,41.54",12,-0.661278333018384,0.186540025549973,1629.85510382839,6895.32438520075,4.25116200698162,4.07672554445003,"10,255,220","5,152,255"
e0017MC,Encoding,5,"2023,3,1,11,31,56.741",3,-5.61052578104948,0.0451987677005645,2181.95582119807,7212.69776196982,0.100967078950517,6.03220825229944,"9,255,19","166,254,10"
e0017MC,Encoding,6,"2023,3,1,11,32,12.873",4,-6.07861057447295,0.117252807765957,2946.01297265154,7278.32903286912,-4.46572785447295,3.14707799223404,"255,7,15","255,8,52"
e0017MC,Encoding,7,"2023,3,1,11,32,29.772",29,-6.21582593630767,-0.0986966706192818,3045.50515718466,6778.41040885346,-1.62279914630767,3.19607091061928,"8,238,253","7,247,255"
e0017MC,Encoding,8,"2023,3,1,11,32,46.255",5,0.195176319922781,0.0401016824732485,3279.40847430443,6695.28813989746,0.567443259922781,1.05447696752675,"236,254,8","255,243,8"
e0017MC,Encoding,9,"2023,3,1,11,33,2.888",8,-6.19204776698271,0.187735065602123,3629.27916713221,7228.69378788931,-0.0666372269827133,5.96218635439788,"88,254,10","115,255,10"
e0017MC,Encoding,10,"2023,3,1,11,33,20.404",1,-0.256800382725978,-0.0955106517258166,4345.67638398556,6761.68009297095,-1.54216258990556,1.89704017172582,"8,253,201","8,255,251"
e0017MC,Encoding,11,"2023,3,1,11,33,38.221",14,-4.35273915350231,1.01942385254209,1295.78542780456,16228.315206283,-4.6448187006819,1.67064488745791,"51,255,10","254,7,17"
e0017MC,Encoding,12,"2023,3,1,11,34,2.421",21,-6.22182871780831,0.0301566628466917,2228.73337620604,7278.42433807598,-4.33585554780831,0.432311927153308,"253,8,71","255,6,88"
e0017MC,Encoding,13,"2023,3,1,11,34,18.554",28,0.357259016099983,-0.0556472341472016,1795.63103336943,6695.03653415137,0.560465686099983,4.3961889841472,"194,255,10","255,243,7"
e0017MC,Encoding,14,"2023,3,1,11,34,33.704",20,-6.13748322961274,0.140917093121597,2245.59653288452,6728.39306330582,-0.261946139612736,3.8588782868784,"22,254,8","57,255,10"
e0017MC,Encoding,15,"2023,3,1,11,34,49.37",11,-5.70148397918065,-0.087580752980335,2378.84670142819,7363.08556618769,-4.35938628918065,5.02894168298034,"255,43,9","253,6,84"
e0017MC,Encoding,16,"2023,3,1,11,35,5.887",2,-0.241359891775942,0.0616979691477394,2945.63087208371,7211.86963303399,-0.505307318955528,0.525145630852261,"57,255,10","10,254,9"
e0017MC,Encoding,17,"2023,3,1,11,35,22.737",23,-1.07064048545036,-2.50546927192652,2095.7966884813,13630.1533358142,-4.67491078262995,6.21912884192652,"248,6,253","255,7,15"
e0017MC,Encoding,18,"2023,3,1,11,35,45.269",30,0.0472135359644064,0.0582083834500813,2362.19790815335,6595.13087164385,1.77605739596441,0.0313604865499187,"255,7,36","255,7,41"
e0017MC,Encoding,19,"2023,3,1,11,36,0.903",22,-0.307235285719173,-0.0196172852603373,2978.76042822247,6795.04717900988,-3.71980282289876,3.55020711526034,"210,5,254","255,7,244"
e0017MC,Encoding,20,"2023,3,1,11,36,17.351",16,-0.141526072723451,-0.0797772456150576,2395.48787028639,7462.1226317023,-0.234110649903038,2.62741851561506,"107,254,11","65,255,9"
e0017MC,Encoding,21,"2023,3,1,11,36,33.951",19,0.181445482752187,0.00810601821336476,1712.17534281288,6878.54333762357,1.52804562275219,5.04651027178664,"255,43,9","255,10,5"
e0017MC,Encoding,22,"2023,3,1,11,36,49.251",6,-0.358746806366675,-0.104997840150403,2345.84939959189,6945.15493254301,-1.82193200354626,2.0733227401504,"7,255,237","6,207,255"
e0017MC,Encoding,23,"2023,3,1,11,37,5.25",17,-5.9169842007567,-0.0555203709775611,2828.35942789893,7678.48891101926,-1.7919059107567,5.12517472097756,"8,114,255","7,215,254"
e0017MC,Encoding,24,"2023,3,1,11,37,22.417",15,-0.443881394076335,-0.244622696233807,1179.03566965992,6595.14553398344,-0.544022281255922,2.11200494623381,"106,255,11","9,255,15"
e0017MC,Encoding,25,"2023,3,1,11,37,36.833",25,-0.471740759440644,-0.167037584169552,3129.10131295382,6228.33544031152,-0.165163829440644,3.31165096416955,"220,255,10","84,255,9"
e0017MC,Encoding,26,"2023,3,1,11,37,52.849",7,0.0344029750776873,-0.012783824968607,2145.59849763805,6378.45404397581,1.07267268507769,2.64245966496861,"255,127,7","255,115,9"
e0017MC,Encoding,27,"2023,3,1,11,38,8.083",26,-5.88490036657193,0.0233885728936093,1628.81613045022,7278.58884952548,-1.55152726657193,0.947339147106391,"7,175,254","6,255,252"
e0017MC,Encoding,28,"2023,3,1,11,38,23.699",27,-6.14248273189079,-0.0916207961196944,2712.08560929495,6328.38362075916,-1.73082035189079,2.71702315611969,"7,195,254","7,229,255"
e0017MC,Encoding,29,"2023,3,1,11,38,39.398",18,-0.228321161997921,-0.0678333521407728,3812.34844639323,6495.19265874255,-0.0709741519979215,2.26744302214077,"186,255,10","114,254,9"
e0017MC,Encoding,30,"2023,3,1,11,38,56.365",24,-0.225924604667056,-0.108203570822061,3112.67890620116,6328.50531817724,3.66081949533294,1.80570279082206,"8,50,255","8,8,254"
e0017MC,SameDayRecall,1,"2023,3,1,11,39,45.085",6,-0.0876386097380495,-0.494906323025345,3432.5299251019,4138.37700217914,-1.55082380691764,2.46323122302534,"7,255,237","6,255,252"
e0017MC,SameDayRecall,2,"2023,3,1,11,39,59.749",9,-0.0756868372305117,-0.835583855311206,1946.61383532491,1980.88852017986,-3.7309804944101,2.93417939531121,"255,7,255","255,6,242"
e0017MC,SameDayRecall,3,"2023,3,1,11,40,10.415",8,-1.98891066770054,5.91603235117679,2145.0905941972,1864.45722804956,-2.14668543488013,0.233889068823209,"88,254,10","6,119,253"
e0017MC,SameDayRecall,4,"2023,3,1,11,40,21.132",21,-0.388074433710777,-5.76566385367852,2713.45037985725,1745.55327898292,1.49789873628922,6.22813244367852,"253,8,71","254,17,6"
e0017MC,SameDayRecall,5,"2023,3,1,11,40,32.266",14,-0.378820695342005,1.7069701675746,1631.99991085298,1561.96436640948,5.612285064658,0.983098572425404,"51,255,10","11,255,35"
e0017MC,SameDayRecall,6,"2023,3,1,11,40,42.164",28,4.96462325477854,1.73172142099345,3495.59587307931,4228.43221175231,5.16782992477854,2.60882032900655,"194,255,10","9,255,154"
e0017MC,SameDayRecall,7,"2023,3,1,11,40,56.614",15,-3.08866644832271,-1.39515365261258,4546.23255584806,2245.06253047934,-3.1888073355023,3.26253590261258,"106,255,11","144,7,255"
e0017MC,SameDayRecall,8,"2023,3,1,11,41,10.08",30,0.860523793273845,-1.51235737049201,4229.11195781239,3111.68304010118,2.58936765327384,1.60192624049201,"255,7,36","254,6,249"
e0017MC,SameDayRecall,9,"2023,3,1,11,41,24.08",22,0.780017386443285,0.248966535083888,1928.89146555069,2245.20827413414,3.65063515644329,3.28162329491611,"210,5,254","6,6,254"
e0017MC,SameDayRecall,10,"2023,3,1,11,41,34.93",29,-2.83867525198729,-0.190473172682688,4528.80020714952,2995.17667679254,1.75435153801271,3.28784741268269,"8,238,253","255,5,41"
e0017MC,SameDayRecall,11,"2023,3,1,11,41,49.129",2,-0.199545047822812,-4.13546342165535,1695.89105529849,2712.31346205116,-0.463492475002398,4.72230702165535,"57,255,10","15,255,10"
e0017MC,SameDayRecall,12,"2023,3,1,11,42,0.146",17,-0.469896293652873,-1.07140321192353,2279.16801193635,2978.99649188866,3.65518199634713,6.14105756192353,"8,114,255","7,7,254"
e0017MC,SameDayRecall,13,"2023,3,1,11,42,12.046",18,6.10157233038346,-2.48941193288891,4678.70884611205,1345.03036130639,6.25891934038346,4.68902160288891,"186,255,10","129,254,8"
e0017MC,SameDayRecall,14,"2023,3,1,11,42,24.712",24,-1.31852542563075,-4.51486505681,2262.15236692678,3578.43076018071,-3.71496663281034,6.21236427681,"8,50,255","254,6,246"
e0017MC,SameDayRecall,15,"2023,3,1,11,42,37.18",3,-0.16311782984573,3.59318905859467,2462.25166029001,2695.22655807157,-0.734810277025316,2.48421796140533,"9,255,19","7,253,49"
e0017MC,SameDayRecall,16,"2023,3,1,11,42,48.979",1,-3.36272248376275,-2.93401907935935,2279.21639765668,1395.52071392689,1.63510061623725,4.73554859935934,"8,253,201","254,7,16"
e0017MC,SameDayRecall,17,"2023,3,1,11,42,59.312",11,0.280388708635836,0.214992002220921,1645.59160633849,1995.23620589082,1.62248639863584,4.72636892777908,"255,43,9","254,7,17"
e0017MC,SameDayRecall,18,"2023,3,1,11,43,9.562",26,-1.18153453198492,-5.25853866538859,6628.89823955163,3095.19435957395,-3.1313467391645,6.22926638538859,"7,175,254","126,7,253"
e0017MC,SameDayRecall,19,"2023,3,1,11,43,25.929",23,-2.68080737114889,2.89622202547864,1678.7710144315,3611.94241688713,-0.00189236114888724,0.817437544521362,"248,6,253","134,254,10"
e0017MC,SameDayRecall,20,"2023,3,1,11,43,37.879",16,-4.50521873493375,-3.7241390024406,2928.89087905701,1411.84576274509,1.68538199506625,6.2717802724406,"107,254,11","255,6,28"
e0017MC,SameDayRecall,21,"2023,3,1,11,43,48.845",5,-4.97536689789987,-2.12495266544167,2495.50144761292,2145.08766172935,-4.60309995789987,3.21953131544167,"236,254,8","255,8,27"
e0017MC,SameDayRecall,22,"2023,3,1,11,44,0.112",13,-1.93893476802728,-0.0858747884600526,1445.55770700958,1944.8983416014,-0.474834828027283,1.61448820846005,"254,20,9","11,254,9"
e0017MC,SameDayRecall,23,"2023,3,1,11,44,10.145",4,-0.214298520528867,0.0753142891194836,1712.46770986272,1244.99567021121,1.39858419947113,3.18901651088052,"255,7,15","255,33,7"
e0017MC,SameDayRecall,24,"2023,3,1,11,44,19.778",27,-0.626706825653881,-0.583753770688402,2445.43043790259,1711.87711082689,3.78495555434612,3.2091561306884,"7,195,254","6,29,254"
e0017MC,SameDayRecall,25,"2023,3,1,11,44,30.578",7,2.09755783259849,-3.59639294448545,1712.36683296684,1795.24863955476,3.13582754259849,6.22606878448545,"255,127,7","131,6,254"
e0017MC,SameDayRecall,26,"2023,3,1,11,44,40.711",10,-5.74265462648107,5.89734140841763,2178.71016572258,1428.28459131806,-0.284754076481075,0.0770452515823691,"9,255,70","50,255,8"
e0017MC,SameDayRecall,27,"2023,3,1,11,44,50.928",25,0.837867887112484,-1.57814490076335,1745.44712364491,1828.39579050096,1.14444481711248,4.72275828076335,"220,255,10","254,96,7"
e0017MC,SameDayRecall,28,"2023,3,1,11,45,1.128",19,-4.30421711709768,3.49055918674505,1429.06990622259,2111.7654424495,-2.95761697709768,1.56405710325495,"255,43,9","73,7,253"
e0017MC,SameDayRecall,29,"2023,3,1,11,45,11.328",12,-1.29165342177984,1.52510494706595,1795.75155780026,1128.40925052865,3.62078691822016,2.73816062293405,"10,255,220","10,6,255"
e0017MC,SameDayRecall,30,"2023,3,1,11,45,20.877",20,-2.15668002807821,-2.24777879341494,2445.48146284387,1428.53590381742,-2.56432824525779,6.24757417341494,"22,254,8","6,15,254"
e0017MC,NextDayRecall,1,"2023,3,2,11,12,32.516",12,-5.79016425247861,-1.93080198054639,3599.20729527635,4273.11305220936,-0.877723912478606,6.19406755054639,"10,255,220","13,255,86"
e0017MC,NextDayRecall,2,"2023,3,2,11,12,47.837",5,-1.29610083555425,-5.09618055985558,1913.50656594226,1897.82314110126,-0.923833895554246,6.19075920985558,"236,254,8","8,255,97"
e0017MC,NextDayRecall,3,"2023,3,2,11,12,58.337",26,-0.0171741609507841,-0.583231898508276,2761.70443245456,3497.69493360453,-1.96698636813037,1.55395961850828,"7,175,254","6,170,255"
e0017MC,NextDayRecall,4,"2023,3,2,11,13,11.303",8,-5.29666898050982,2.89805328330641,2246.43023350949,1845.24281860604,0.828741559490183,3.25186813669359,"88,254,10","252,185,7"
e0017MC,NextDayRecall,5,"2023,3,2,11,13,22.039",21,1.75133336891476,-5.74857958918894,3282.389621175,1928.83545541373,3.63730653891476,6.21104817918894,"253,8,71","7,8,254"
e0017MC,NextDayRecall,6,"2023,3,2,11,13,33.92",17,-2.06700864270266,5.06089757750605,3079.81033970587,2045.53213588939,-4.22511565988225,0.00875677249395329,"8,114,255","254,7,121"
e0017MC,NextDayRecall,7,"2023,3,2,11,13,45.669",4,-3.7675840827171,0.0888978418207627,1695.72155865362,1628.67331926336,-2.1547013627171,3.17543295817924,"255,7,15","8,116,255"
e0017MC,NextDayRecall,8,"2023,3,2,11,13,55.602",23,3.0648627690209,-0.84731450155244,2445.99024602526,1661.97823698269,5.7437777790209,4.56097407155244,"248,6,253","10,255,14"
e0017MC,NextDayRecall,9,"2023,3,2,11,14,6.319",14,-4.65604014943775,-0.715563820448363,1679.23463760708,1495.26245147865,1.33506561056225,3.40563256044836,"51,255,10","255,45,8"
e0017MC,NextDayRecall,10,"2023,3,2,11,14,16.102",27,-3.29184575453377,-3.53293374295047,2179.59078583395,2811.7645920336,-5.16336868171336,6.15833610295047,"7,195,254","253,103,8"
e0017MC,NextDayRecall,11,"2023,3,2,11,14,27.702",28,-2.54703937832086,1.87983864052254,1495.69528374118,2728.54995033865,-2.34383270832086,2.46070310947746,"194,255,10","6,65,255"
e0017MC,NextDayRecall,12,"2023,3,2,11,14,38.569",9,-1.97767387876013,-4.11615956928191,1795.25186526951,1612.24270160056,0.650217771239874,6.21475510928191,"255,7,255","255,229,9"
e0017MC,NextDayRecall,13,"2023,3,2,11,14,48.635",3,-4.24691015341333,1.34506303716211,2762.35895929059,2428.57842460199,1.46458270658667,4.73234398283789,"9,255,19","254,20,9"
e0017MC,NextDayRecall,14,"2023,3,2,11,15,0.485",11,0.11618795846409,-1.27354239138997,2179.06382135172,1845.23314146196,1.45828564846409,6.21490332138997,"255,43,9","255,21,10"
e0017MC,NextDayRecall,15,"2023,3,2,11,15,11.118",18,1.31753313668516,-4.0784556061701,2679.05341109065,2178.53802985664,1.47488014668516,6.2780652761701,"186,255,10","255,18,8"
e0017MC,NextDayRecall,16,"2023,3,2,11,15,22.618",25,-0.372467353440601,1.6129241809903,1495.67006451724,1095.17940398763,-0.0658904234406013,1.5316891990097,"220,255,10","115,255,10"
e0017MC,NextDayRecall,17,"2023,3,2,11,15,31.835",29,-5.05943757525552,-1.50346833136069,3179.09402577112,1978.48594922667,-0.466410785255516,4.60084257136069,"8,238,253","15,255,10"
e0017MC,NextDayRecall,18,"2023,3,2,11,15,43.635",6,-0.990338350530837,-4.24763310693686,2245.77629316704,1878.71840595736,3.82966175946916,6.21595800693686,"7,255,237","8,36,255"
e0017MC,NextDayRecall,19,"2023,3,2,11,15,54.401",16,-2.33277506585236,-3.61059299063406,3262.25177758872,2178.57644518617,-2.42535964303195,6.15823426063406,"107,254,11","6,44,255"
e0017MC,NextDayRecall,20,"2023,3,2,11,16,6.484",7,-3.4583960736959,-1.98011074804349,3362.45948429036,2145.25803811446,-2.4201263636959,4.60978658804349,"255,127,7","5,45,254"
e0017MC,NextDayRecall,21,"2023,3,2,11,16,18.618",20,-1.35786055073945,0.842510048584038,3729.34025043864,1211.92945537914,-1.76550876791904,3.15728533141596,"22,254,8","6,222,255"
e0017MC,NextDayRecall,22,"2023,3,2,11,16,30.168",10,-0.157152267624733,1.36412243301277,2195.94750530558,2095.25124945125,-0.982437024804319,4.61026422698723,"9,255,70","10,255,116"
e0017MC,NextDayRecall,23,"2023,3,2,11,16,41.034",1,-1.17086566030682,0.878432006518562,1662.15594453763,3561.85029340807,-2.45622786748641,0.923097513481438,"8,253,201","8,36,255"
e0017MC,NextDayRecall,24,"2023,3,2,11,16,52.901",19,-1.6707832241167,-0.239137756110678,2628.99002579695,3145.01728249957,-0.324183084116704,5.29375404611068,"255,43,9","41,255,10"
e0017MC,NextDayRecall,25,"2023,3,2,11,17,5.284",13,0.0928998961571563,-1.10287886763408,1595.70358262533,2011.93837008151,1.55699983615716,2.63149228763408,"254,20,9","253,7,6"
e0017MC,NextDayRecall,26,"2023,3,2,11,17,15.518",2,-5.72461254750012,-3.41069929442497,1579.09877636911,1461.92732933991,0.294625332499877,3.99754289442497,"57,255,10","217,255,8"
e0017MC,NextDayRecall,27,"2023,3,2,11,17,25.184",22,-0.455240467982597,2.65953158093807,2695.52596304447,2311.84978022617,-3.86780800516218,0.871058249061925,"210,5,254","255,6,216"
e0017MC,NextDayRecall,28,"2023,3,2,11,17,36.901",15,-1.51111052370852,-4.29302662070001,1696.01421895038,1645.24792110018,4.67193389629148,6.16040887070001,"106,255,11","6,249,255"
e0017MC,NextDayRecall,29,"2023,3,2,11,17,46.867",30,0.547741173091275,-3.22990214171775,1745.6474112027,2511.90391358369,2.27658503309128,3.31947101171775,"255,7,36","255,6,183"
e0017MC,NextDayRecall,30,"2023,3,2,11,17,57.767",24,-2.95526095970805,-2.94913057347298,3279.12930335998,2261.824810262,0.93148314029195,4.64662979347298,"8,50,255","255,157,8"
e0019VQ,Encoding,1,"2023,5,10,10,55,47.178",14,-5.99290527464829,-0.0345928109881646,2498.12161870105,9302.04212934632,-2.68034807464829,1.04916037098816,"77,6,254","13,7,255"
e0019VQ,Encoding,2,"2023,5,10,10,56,6.053",15,-5.74912447570191,0.122266627723936,3212.22849538594,7161.55545396242,-0.237612635701906,4.52433131227606,"8,255,58","65,255,10"
e0019VQ,Encoding,3,"2023,5,10,10,56,23.147",19,-0.399320760868544,-6.18807882893224,4909.54709178601,7760.94016715552,4.65432054913146,6.28307942893224,"8,255,185","8,246,255"
e0019VQ,Encoding,4,"2023,5,10,10,56,42.54",27,0.21473462943603,-0.187239961700335,2679.32068019957,5032.51061473844,3.56430255943603,0.710504111700335,"67,5,254","19,7,255"
e0019VQ,Encoding,5,"2023,5,10,10,56,56.737",4,0.604041486524726,0.0702589248528396,6730.07758971318,8360.28675848951,0.773851106524726,4.88995305514716,"186,255,10","255,200,11"
e0019VQ,Encoding,6,"2023,5,10,10,57,18.495",10,-3.40732614184482,-0.383006820843002,6893.3139244196,28702.4644608968,-0.00201973184481963,5.401220250843,"55,6,255","134,254,10"
e0019VQ,Encoding,7,"2023,5,10,10,58,0.797",20,0.352176724389476,-0.0539136974194501,3327.77262481022,7592.83332507357,6.12187584438948,1.11505865741945,"10,254,11","86,255,9"
e0019VQ,Encoding,8,"2023,5,10,10,58,18.341",26,0.0789870446082863,0.05677901910662,2727.8002484959,7342.75568844117,1.67258319460829,5.50544170089338,"255,7,13","255,8,26"
e0019VQ,Encoding,9,"2023,5,10,10,58,35.068",21,0.193323567064584,-0.0858262016014359,2244.89306378638,8359.05014402732,3.65815002706458,2.89939128160144,"40,6,255","8,8,254"
e0019VQ,Encoding,10,"2023,5,10,10,58,52.246",6,-0.297386367966636,-0.0127933227746375,7193.18017534294,6676.23574205811,3.01869967203336,4.30372335277464,"77,7,254","168,5,254"
e0019VQ,Encoding,11,"2023,5,10,10,59,12.73",30,-5.62070207060344,-0.279982548133487,5976.15976226035,11891.414282853,-3.76591797060344,5.19632288813349,"255,7,64","254,7,237"
e0019VQ,Encoding,12,"2023,5,10,10,59,37.388",5,-5.84540686683088,0.0786129491582543,3877.66959315474,8292.21108835856,-3.88756844683088,0.586423320841746,"254,7,92","253,7,212"
e0019VQ,Encoding,13,"2023,5,10,10,59,56.199",12,-0.0977544246381372,0.192333835963473,4527.99537376575,8658.7468992999,-2.56072437181772,4.12990060403653,"8,34,255","7,16,255"
e0019VQ,Encoding,14,"2023,5,10,11,0,16.075",13,-0.542071441424908,0.0238591896241873,1944.75526792775,7159.43763806342,4.29459776857509,5.40817809037581,"8,255,236","7,164,255"
e0019VQ,Encoding,15,"2023,5,10,11,0,31.82",3,-0.00395974706611457,-0.03036401510525,2294.69956602657,7325.84893714795,1.82233766293389,5.26367060510525,"254,7,59","255,7,57"
e0019VQ,Encoding,16,"2023,5,10,11,0,50.666",1,-0.0539395478940996,-0.128778238257995,3594.18694431895,7076.27392256632,-1.47627845507369,1.635840288258,"7,255,231","8,255,241"
e0019VQ,Encoding,17,"2023,5,10,11,1,8.241",7,-0.440329095661182,0.0291264374747044,4277.44414634458,7826.11183135361,-3.53832684284077,1.4367890925253,"116,6,255","236,6,255"
e0019VQ,Encoding,18,"2023,5,10,11,1,27.002",9,-5.99516097752934,-0.109276406830008,1145.15337743535,6826.19511295366,-0.302397607529342,3.35803093683001,"9,255,22","47,255,11"
e0019VQ,Encoding,19,"2023,5,10,11,1,41.63",24,-0.172458766404747,0.0267334391769474,1928.44615008812,6992.69409231408,-2.48732130358433,6.20712915082305,"9,70,255","6,31,254"
e0019VQ,Encoding,20,"2023,5,10,11,1,57.241",18,-0.408678452332875,0.0798379257215425,1528.68068749558,6759.86366450184,-2.50729787951246,6.11162275427846,"7,133,254","5,26,253"
e0019VQ,Encoding,21,"2023,5,10,11,2,12.486",8,0.366933298149875,-0.0069693877595346,2478.11585350291,7092.59066477773,2.44704775814988,0.667795167759535,"255,8,128","255,6,222"
e0019VQ,Encoding,22,"2023,5,10,11,2,28.797",23,0.27295827108509,-0.045339545731085,3127.7091079279,6859.38693599075,1.23320532108509,1.44098696573108,"255,149,8","255,69,8"
e0019VQ,Encoding,23,"2023,5,10,11,2,45.408",11,-6.23607666870456,-0.105193056732286,2028.327180563,6959.485554308,-2.37050705870456,0.474406406732286,"6,46,255","7,58,255"
e0019VQ,Encoding,24,"2023,5,10,11,3,1.07",25,-1.11312356119637,2.73602497896572,2811.33374602689,11158.037686097,-2.30404110837595,0.204735171034275,"8,255,176","9,74,254"
e0019VQ,Encoding,25,"2023,5,10,11,3,21.729",28,-0.030158426261444,0.0725433266906013,3460.93960998996,6259.71660209893,-1.74020086344103,4.7826085433094,"7,233,255","6,226,254"
e0019VQ,Encoding,26,"2023,5,10,11,3,38.09",29,0.166862458417631,0.000535934503585356,1228.40242724806,7376.04486884175,2.64033473841763,2.61856124549641,"255,7,231","255,7,254"
e0019VQ,Encoding,27,"2023,5,10,11,3,53.369",2,-5.80872997048793,-0.00776328014825856,1511.22116924432,6509.58339552574,-0.566496860487926,2.16876785014826,"9,255,131","9,255,17"
e0019VQ,Encoding,28,"2023,5,10,11,4,8.064",17,-0.116827444246412,-4.32982515954237,3544.28425769561,56958.7005372542,-0.0962823542464124,5.66455099954237,"141,255,9","105,254,10"
e0019VQ,Encoding,29,"2023,5,10,11,5,15.258",16,-0.153696731147087,-0.0499420107332345,2811.00032638176,7242.6512052225,0.557135488852913,5.13402149073323,"255,214,8","255,244,8"
e0019VQ,Encoding,30,"2023,5,10,11,5,31.935",22,-6.10522357597862,0.12076120791391,1578.60947293011,6626.01517777841,-0.392897755978618,3.95200981208609,"9,255,19","28,255,8"
e0019VQ,SameDayRecall,1,"2023,5,10,11,7,7.753",17,-0.311308580791234,-1.29471585962604,3081.61303556449,6186.34375301485,-0.290763490791234,2.62944169962604,"141,255,9","51,255,10"
e0019VQ,SameDayRecall,2,"2023,5,10,11,7,24.142",22,-6.0168788621221,1.36558460944725,1579.25783778091,4462.8295744692,-0.304553042122104,2.70718641055275,"9,255,19","46,254,10"
e0019VQ,SameDayRecall,3,"2023,5,10,11,7,36.971",26,-1.81492618060683,0.856567654052068,5309.91546624352,4362.74708463088,-0.221330030606834,4.70565306594793,"255,7,13","68,255,11"
e0019VQ,SameDayRecall,4,"2023,5,10,11,7,53.448",28,-4.55557638572898,-1.07438439218551,3478.45484480444,17122.8632331383,0.0175664842710208,5.92953626218551,"7,233,255","141,255,9"
e0019VQ,SameDayRecall,5,"2023,5,10,11,8,20.773",13,-5.05356401245024,2.92472324087083,2133.01713694864,3510.6320398977,-0.216894802450238,2.50731403912917,"8,255,236","71,255,11"
e0019VQ,SameDayRecall,6,"2023,5,10,11,8,33.235",29,-2.81472166803544,-2.44776780850005,21521.4208192857,4893.97401907331,-0.341249388035441,5.06686498850005,"255,7,231","38,255,9"
e0019VQ,SameDayRecall,7,"2023,5,10,11,9,6.356",19,-4.92191571463077,-2.35037920778134,5293.87730684903,13173.9474041508,0.131725595369227,2.44537980778134,"8,255,185","175,255,10"
e0019VQ,SameDayRecall,8,"2023,5,10,11,9,31.548",4,-0.123390795395568,2.55346331876178,2328.76379314848,6393.1085062477,-6.23676648257515,2.40674866123822,"186,255,10","149,254,11"
e0019VQ,SameDayRecall,9,"2023,5,10,11,9,47.009",3,-2.11577757582301,-0.751672176340566,1895.26224466795,5843.12620358764,-0.289480165823013,5.98497876634057,"254,7,59","51,255,10"
e0019VQ,SameDayRecall,10,"2023,5,10,11,10,1.521",20,-5.9832453874057,-1.41925417323551,2894.46051264531,15506.4990438746,-0.213546267405705,2.48039913323551,"10,254,11","70,255,11"
e0019VQ,SameDayRecall,11,"2023,5,10,11,10,26.579",5,-2.0592368817606,-2.26720386051721,2561.32179629026,10041.591828081,-0.101398461760601,2.93224013051721,"254,7,92","105,255,10"
e0019VQ,SameDayRecall,12,"2023,5,10,11,10,45.939",2,-5.2722768757857,-3.26225680613931,3494.71557720744,3694.09114115433,-0.0300437657857044,5.42326137613931,"9,255,131","127,255,10"
e0019VQ,SameDayRecall,13,"2023,5,10,11,10,59.902",11,-3.90201024026589,-5.65502073553065,1628.44559292239,2794.92580459851,-0.0364406302658937,6.02423408553065,"6,46,255","125,255,9"
e0019VQ,SameDayRecall,14,"2023,5,10,11,11,11.031",21,-3.64736486983348,0.480020967258478,1811.70939296203,1861.11473594588,-0.182538409833476,2.33354411274152,"40,6,255","78,255,9"
e0019VQ,SameDayRecall,15,"2023,5,10,11,11,21.411",9,-5.98271390019838,-2.12180265197226,4793.8378653871,2394.12137472118,-0.28995053019838,5.37055718197226,"9,255,22","51,255,10"
e0019VQ,SameDayRecall,16,"2023,5,10,11,11,35.34",24,-4.03958294342153,0.312338090627615,1961.49926820704,1928.00335003176,-0.0712601734215254,5.92152449937239,"9,70,255","114,254,9"
e0019VQ,SameDayRecall,17,"2023,5,10,11,11,45.919",16,-1.11127326424211,2.67910684691287,4910.55174939743,5426.83814074417,-0.400441044242115,2.40497263308713,"255,214,8","27,254,9"
e0019VQ,SameDayRecall,18,"2023,5,10,11,12,2.947",23,-1.1235598622746,-4.30073467822287,1828.20501466654,1328.13009055099,-0.163312812274603,5.69638209822287,"255,149,8","86,255,9"
e0019VQ,SameDayRecall,19,"2023,5,10,11,12,12.91",14,-3.45456513726022,-3.69449980556819,4861.03702600235,4443.55897466266,-0.142007937260218,4.70906736556819,"77,6,254","91,254,10"
e0019VQ,SameDayRecall,20,"2023,5,10,11,12,28.988",27,-3.23462730000342,-3.86609483168076,5860.33851624438,13773.8109865441,0.114940629996581,4.38935898168076,"67,5,254","170,255,12"
e0019VQ,SameDayRecall,21,"2023,5,10,11,12,55.196",8,-2.10527571972407,-2.21586884010217,2178.13640998224,1911.0880946314,-0.0251612597240736,2.87669462010217,"255,8,128","129,254,8"
e0019VQ,SameDayRecall,22,"2023,5,10,11,13,5.959",6,-3.46512619519244,3.77340792617152,4094.14105146539,15489.8172115502,-0.14904015519244,0.517522103828481,"77,7,254","89,255,9"
e0019VQ,SameDayRecall,23,"2023,5,10,11,13,32.217",1,-5.09709238623969,-2.02042412625588,2361.38584101377,23087.1978879318,-0.236245986239692,3.52748617625588,"7,255,231","65,255,10"
e0019VQ,SameDayRecall,24,"2023,5,10,11,14,4.306",7,-3.53136647555233,-2.98328611431629,1828.31556805809,2094.38209891346,-0.346178915552333,4.44920164431629,"116,6,255","36,255,9"
e0019VQ,SameDayRecall,25,"2023,5,10,11,14,14.969",25,-5.09791542801875,-2.47001062920834,1711.2386466506,4893.59045452102,-0.00564766801875205,5.41077077920834,"8,255,176","133,254,10"
e0019VQ,SameDayRecall,26,"2023,5,10,11,14,28.298",15,-5.95085702105937,-0.694311552592137,3361.18291542493,1894.37429859436,-0.439345181059373,5.34090949259214,"8,255,58","21,254,9"
e0019VQ,SameDayRecall,27,"2023,5,10,11,14,40.261",12,-4.1318481508606,-1.23500376133428,1678.22980853725,1628.07287843793,-0.311632790860602,5.55723820133428,"8,34,255","45,255,10"
e0019VQ,SameDayRecall,28,"2023,5,10,11,14,50.24",18,-4.68038986823009,2.78402329089732,3860.93556320793,2444.07684545718,-0.495823988230089,3.40743738910268,"7,133,254","11,255,10"
e0019VQ,SameDayRecall,29,"2023,5,10,11,15,3.186",10,-3.68288222868762,2.20340515434198,1644.66292505517,12590.750405338,-0.27757581868762,2.81480827565802,"55,6,255","52,255,9"
e0019VQ,SameDayRecall,30,"2023,5,10,11,15,24.029",30,-2.2179343239565,-1.21660574484403,1795.05395269439,1161.35751353977,-0.3631502239565,6.13294608484403,"255,7,64","34,254,9"
e0019VQ,NextDayRecall,1,"2023,5,11,13,54,22.188",9,-4.34919730706244,-2.61429748055955,2615.05489794279,4821.45925716963,1.34356606293756,5.86305201055955,"9,255,22","255,43,9"
e0019VQ,NextDayRecall,2,"2023,5,11,13,54,39.901",19,-2.28904567976717,-2.63691912438654,1363.13195974601,1997.24762517499,-3.51858967694676,2.73191972438654,"8,255,185","232,7,255"
e0019VQ,NextDayRecall,3,"2023,5,11,13,54,49.964",24,-4.07227091635908,0.600709305966551,2427.84707751515,3213.39995413686,-0.103948146359079,5.63315328403345,"9,70,255","105,255,10"
e0019VQ,NextDayRecall,4,"2023,5,11,13,55,2.327",25,-5.00921779755294,0.651479226742363,1179.16769545937,3061.04049504039,0.0830499624470611,2.28928092325764,"8,255,176","160,255,11"
e0019VQ,NextDayRecall,5,"2023,5,11,13,55,13.225",8,-1.56704804095499,-5.14084665561659,2948.41041996442,1595.11674866707,0.513066419045007,5.80167243561659,"255,8,128","255,251,11"
e0019VQ,NextDayRecall,6,"2023,5,11,13,55,24.469",29,-2.09105814085239,-0.918995775489503,1228.8415217413,2944.32936302434,0.382414139147607,3.5380929554895,"255,7,231","236,255,8"
e0019VQ,NextDayRecall,7,"2023,5,11,13,55,35.231",28,-0.693792338593269,4.63073658187669,2145.19642267516,1994.72251334694,-2.40383477577286,0.224415288123306,"7,233,255","7,48,255"
e0019VQ,NextDayRecall,8,"2023,5,11,13,55,46.078",3,0.988773855665018,1.2313749659976,945.265979814366,1828.10149477471,2.81507126566502,4.0019316240024,"254,7,59","222,6,255"
e0019VQ,NextDayRecall,9,"2023,5,11,13,55,55.474",5,-5.68393253183916,-0.673255010217164,1045.99597788482,2744.72441942369,-3.72609411183916,1.33829128021716,"254,7,92","254,6,243"
e0019VQ,NextDayRecall,10,"2023,5,11,13,56,5.871",20,-3.88186083102572,-4.70482813238528,2061.49091563822,2177.85631465632,1.88783828897428,5.76597309238528,"10,254,11","253,8,70"
e0019VQ,NextDayRecall,11,"2023,5,11,13,56,16.767",27,-0.664723748271719,-2.47582887825651,1861.64639285239,111.959429303027,2.68484418172828,2.99909302825651,"67,5,254","246,6,254"
e0019VQ,NextDayRecall,12,"2023,5,11,13,56,25.431",18,-2.5741413702368,4.69627165727927,1011.82500690586,1577.96059171662,1.6104245097632,1.49518902272073,"7,133,254","255,7,15"
e0019VQ,NextDayRecall,13,"2023,5,11,13,56,34.661",21,-0.736799302555237,-2.32307193408891,1445.19912050686,728.683757235018,2.72802715744476,5.13663701408891,"40,6,255","240,7,255"
e0019VQ,NextDayRecall,14,"2023,5,11,13,56,43.475",12,-3.41800572446329,3.60811650827559,2044.78371307269,2794.17714080279,0.402209635536714,0.714117931724406,"8,34,255","240,255,9"
e0019VQ,NextDayRecall,15,"2023,5,11,13,56,54.921",1,-3.34248097960176,-1.36058408688962,1727.93510893669,1111.42308863023,1.51836542039824,2.86764613688962,"7,255,231","255,10,5"
e0019VQ,NextDayRecall,16,"2023,5,11,13,57,4.385",26,-4.38805564584528,3.63351521797742,1361.53437418807,4893.38315720207,-2.79445949584528,1.92870550202258,"255,7,13","33,7,254"
e0019VQ,NextDayRecall,17,"2023,5,11,13,57,17.313",11,-2.20025425392849,0.233194387293729,1478.37981130425,3577.19874750231,-4.61786995110808,0.136018962706271,"6,46,255","255,7,25"
e0019VQ,NextDayRecall,18,"2023,5,11,13,57,28.976",30,1.6869273867413,1.45578596452583,2694.81306665463,1411.35863391187,3.5417114867413,3.46055437547417,"255,7,64","23,7,255"
e0019VQ,NextDayRecall,19,"2023,5,11,13,57,39.739",2,-2.17318767014868,-0.9316640035972,1345.16381410063,1794.58885338047,-3.21413986732827,3.0926685735972,"9,255,131","151,7,253"
e0019VQ,NextDayRecall,20,"2023,5,11,13,57,49.519",6,1.61776121228985,-1.20415267183085,2594.709434728,2077.86968651783,4.93384725228985,5.49508270183085,"77,7,254","9,255,216"
e0019VQ,NextDayRecall,21,"2023,5,11,13,58,0.799",22,-6.03504546624954,2.18845349299871,1628.56663614988,2077.78083401709,-0.322719646249537,1.88431752700129,"9,255,19","41,255,10"
e0019VQ,NextDayRecall,22,"2023,5,11,13,58,11.145",10,-1.65590360697655,1.63041464810215,2011.8511054952,1578.02217265771,-4.53378250415613,3.38779878189785,"55,6,255","255,6,39"
e0019VQ,NextDayRecall,23,"2023,5,11,13,58,21.359",13,-1.01549601391233,2.12225604698906,3261.07122686241,4993.39500420217,-2.46201211109191,3.30978123301094,"8,255,236","8,34,255"
e0019VQ,NextDayRecall,24,"2023,5,11,13,58,36.253",23,-1.15622857622541,-4.61296143067027,1528.41285974267,1661.26640912148,-0.195981526225408,6.00860885067027,"255,149,8","77,254,10"
e0019VQ,NextDayRecall,25,"2023,5,11,13,58,46.084",14,-2.13996120729338,-2.94382355615176,1345.16234788771,1944.54694901628,1.17259599270662,3.95839111615176,"77,6,254","255,88,10"
e0019VQ,NextDayRecall,26,"2023,5,11,13,58,55.964",4,-4.99874345587038,3.58214288515103,1261.80433330421,2111.12720687032,-4.82893383587038,1.37806909484897,"186,255,10","254,21,8"
e0019VQ,NextDayRecall,27,"2023,5,11,13,59,5.96",15,-1.66310251800869,-1.22921724280936,1078.41980959171,1677.76922161107,3.84840932199131,5.87581518280936,"8,255,58","8,42,254"
e0019VQ,NextDayRecall,28,"2023,5,11,13,59,15.324",7,-2.75641607996235,-2.29569861012529,1678.24544755558,3693.93421865226,0.428771480037654,3.76161414012529,"116,6,255","244,254,7"
e0019VQ,NextDayRecall,29,"2023,5,11,13,59,27.37",16,1.89698445430906,1.5098940740443,4760.61640762595,5393.24679940387,2.60781667430906,3.5741854059557,"255,214,8","254,6,248"
e0019VQ,NextDayRecall,30,"2023,5,11,13,59,44.198",17,-3.72873579544731,0.207623568426979,995.368526743392,1094.79154264955,-3.70819070544731,1.12710227157302,"141,255,9","255,5,250"
e0020JA,Encoding,1,"2023,7,14,11,54,35.132",8,0.341566168989896,0.119007305666757,3132.09829515114,7271.94153128195,0.486148038989896,5.74009891433324,"178,255,9","254,255,11"
e0020JA,Encoding,2,"2023,7,14,11,54,54.175",24,-0.123033273685616,-0.0395368348960234,3246.86277252525,6961.69845022004,-0.167345600865202,5.03519002489602,"121,254,8","84,255,9"
e0020JA,Encoding,3,"2023,7,14,11,55,11.974",4,0.121305278778958,0.0537376875976463,3230.05533273687,6946.05842590403,0.960022778778958,5.48861396240235,"255,182,10","255,149,8"
e0020JA,Encoding,4,"2023,7,14,11,55,29.507",20,-5.66594441901009,0.138527435961068,2496.59789736188,6878.71723297022,-3.66441384901009,5.68549697403893,"255,7,105","255,7,253"
e0020JA,Encoding,5,"2023,7,14,11,55,46.274",28,-0.347429963700598,0.0261445786652788,2398.96636371341,6529.23333265886,2.2763639762994,4.95427653133472,"255,7,255","255,6,183"
e0020JA,Encoding,6,"2023,7,14,11,56,2.707",15,-0.101923276748917,0.00363926807311188,1962.23861080784,6762.10794003805,2.50403974325108,4.54076350192689,"254,5,250","255,6,236"
e0020JA,Encoding,7,"2023,7,14,11,56,18.822",22,-5.38211310886785,0.0153684950919115,2679.67245506503,6728.50801604761,-0.176372278867855,2.82923078490809,"9,255,143","83,253,10"
e0020JA,Encoding,8,"2023,7,14,11,56,35.504",3,-6.22710127105669,0.0400585726755258,3245.81910719843,6512.01036216855,-2.97157187105669,6.09771403732447,"95,6,254","77,6,254"
e0020JA,Encoding,9,"2023,7,14,11,56,52.769",14,-6.20697274471416,0.00303605690529285,2063.01228381477,6578.51961395818,-2.52279433471416,0.975855623094707,"6,11,254","7,24,255"
e0020JA,Encoding,10,"2023,7,14,11,57,8.852",9,-6.17662529694493,0.0340704501211446,2095.64332040998,6595.21298074514,-3.72548948694493,5.94293573987886,"255,6,224","254,6,243"
e0020JA,Encoding,11,"2023,7,14,11,57,25.085",30,-6.15581129923253,0.0171263969649522,1562.31655580473,6895.30561740622,-2.66058474923253,3.77012095303505,"29,6,254","10,6,255"
e0020JA,Encoding,12,"2023,7,14,11,57,41.118",29,-0.124113679289551,-0.0116886809152614,3245.84549940954,7212.18868554178,-3.32458407646914,1.67165104091526,"147,6,254","186,6,255"
e0020JA,Encoding,13,"2023,7,14,11,57,59.051",19,-5.97354042437176,0.0478071895752854,2762.40881124494,6228.5401265712,-0.468513354371764,1.48495146042471,"8,255,59","13,255,10"
e0020JA,Encoding,14,"2023,7,14,11,58,15.601",16,-0.0673115706397098,0.0468123702784116,3395.98404385566,6395.05445153026,3.20266309936029,4.94588632972159,"91,6,255","112,7,255"
e0020JA,Encoding,15,"2023,7,14,11,58,32.784",25,-0.213103494579522,0.0840874266581528,2095.63657573375,6961.83510322436,2.60162889542048,1.15497503334185,"222,6,255","255,6,251"
e0020JA,Encoding,16,"2023,7,14,11,58,49.15",5,0.14478672496086,-0.0374682364424883,2195.55807356801,6629.01231255302,2.55220934496086,4.34768995644249,"255,6,213","255,6,242"
e0020JA,Encoding,17,"2023,7,14,11,59,5.266",13,-0.437040943332159,0.0578332156111665,1812.02646141742,6661.82516215815,-2.63733829051174,1.32411058438883,"6,103,255","6,6,253"
e0020JA,Encoding,18,"2023,7,14,11,59,20.932",2,-0.0150710759510897,-0.057812901283973,2829.02275213877,6561.85557185029,-3.20966342313068,3.52603584128397,"147,6,255","152,6,255"
e0020JA,Encoding,19,"2023,7,14,11,59,37.565",27,-6.15088522094571,0.0253202982569167,2028.88011689987,6595.11679579788,-0.443945100945712,4.32267724174308,"8,255,18","20,255,9"
e0020JA,Encoding,20,"2023,7,14,11,59,53.465",23,0.287495246807146,0.149028499878491,1695.89955945537,6378.53527333681,4.58593318680715,3.81004590012151,"9,166,255","10,235,252"
e0020JA,Encoding,21,"2023,7,14,12,0,8.864",12,-0.359837986367092,-0.0499769239295427,1796.15975733236,6245.18481439088,2.71189694363291,0.797348853929543,"152,6,255","243,7,254"
e0020JA,Encoding,22,"2023,7,14,12,0,24.314",17,-0.212756673782668,0.0104102288498461,1295.60156206696,6111.83054323681,3.63090336621733,0.379781621150154,"6,41,255","8,7,254"
e0020JA,Encoding,23,"2023,7,14,12,0,38.898",10,-6.1033318435509,0.0389361352639458,2545.82230358835,6378.48747410999,-0.463687973550903,0.321541604736054,"9,254,31","15,255,10"
e0020JA,Encoding,24,"2023,7,14,12,0,55.247",6,-6.02168188071028,-0.00308681935136956,1879.16472757218,6211.80335925919,-1.58302688071028,4.28765420935137,"8,201,255","8,253,254"
e0020JA,Encoding,25,"2023,7,14,12,1,10.614",26,-0.213699179490371,-0.0705153946252506,1862.32532388374,6078.50509824198,0.455426630509629,3.46094648462525,"255,225,11","251,255,10"
e0020JA,Encoding,26,"2023,7,14,12,1,25.779",7,-0.130687898170845,-0.0445116458149548,1278.94103892061,6195.15251325697,0.381203121829155,3.63049649581495,"254,252,11","236,255,8"
e0020JA,Encoding,27,"2023,7,14,12,1,40.712",21,0.341857486516328,0.0731401785393999,1762.34341721079,6445.17736592241,5.80973978651633,1.1544459714606,"10,255,70","11,254,9"
e0020JA,Encoding,28,"2023,7,14,12,1,56.061",18,0.308110977782954,0.0892210316740716,1595.56986208895,6145.17534251956,1.56292249778295,0.958554918325928,"255,66,11","253,7,8"
e0020JA,Encoding,29,"2023,7,14,12,2,10.978",11,-0.266500782312593,0.0263456791761909,1762.24547278275,6361.7700610863,4.57262859768741,4.60451001082381,"8,255,236","7,233,255"
e0020JA,Encoding,30,"2023,7,14,12,2,26.41",1,-0.00369740353379289,-0.0239055716389096,1312.39580574981,6261.86146611076,3.72737041646621,4.96179083163891,"7,18,255","8,17,255"
e0020JA,SameDayRecall,1,"2023,7,14,12,3,35.13",7,0.0824595664755678,-0.170607368925824,6532.80126635696,1721.44282112788,0.594350586475568,3.75659221892582,"254,252,11","254,240,9"
e0020JA,SameDayRecall,2,"2023,7,14,12,3,51.176",11,-1.10273080882857,3.72441368901526,1863.67924431477,4379.40768253804,3.73639857117143,0.906442000984743,"8,255,236","8,19,255"
e0020JA,SameDayRecall,3,"2023,7,14,12,4,4.926",2,-0.45890228088634,-0.197530358938168,5979.86303615414,1296.54435049792,2.62969067911366,3.66575329893817,"147,6,255","255,7,254"
e0020JA,SameDayRecall,4,"2023,7,14,12,4,19.526",14,-1.106921842412,-4.38257649365126,2196.63223656107,1545.19006350847,-3.70592873959159,5.36146817365126,"6,11,254","255,5,250"
e0020JA,SameDayRecall,5,"2023,7,14,12,4,31.027",9,-2.92595221732669,0.511349699420902,2032.35245214433,11761.8698236444,-0.474816407326686,5.4656564905791,"255,6,224","11,254,9"
e0020JA,SameDayRecall,6,"2023,7,14,12,4,52.109",5,0.108630675402251,-0.910360653299889,3862.28544232017,5211.84412056311,2.51605329540225,5.22058237329989,"255,6,213","255,6,236"
e0020JA,SameDayRecall,7,"2023,7,14,12,5,8.575",3,-4.72083119977905,0.470900366403183,2712.17006437064,2379.02968742537,-1.46530179977905,5.66687224359682,"95,6,254","7,255,237"
e0020JA,SameDayRecall,8,"2023,7,14,12,5,20.808",22,-5.80692240636987,-0.103285947240847,1912.94294561124,1128.64531419484,-0.601181576369874,2.94788522724085,"9,255,143","9,255,22"
e0020JA,SameDayRecall,9,"2023,7,14,12,5,31.308",17,0.411673433146585,-0.574884300350468,4378.95080403871,1995.30922434178,4.25533347314659,0.965076150350468,"6,41,255","6,153,255"
e0020JA,SameDayRecall,10,"2023,7,14,12,5,45.091",26,-0.156126954503771,-0.12942086223395,1595.88832810323,1345.25469510106,0.512998855496229,3.51985195223395,"255,225,11","255,251,11"
e0020JA,SameDayRecall,11,"2023,7,14,12,5,55.441",24,-3.98083951384924,2.02648852274741,4695.95996829423,1978.48008429094,2.25803346615076,2.96916466725259,"121,254,8","255,8,178"
e0020JA,SameDayRecall,12,"2023,7,14,12,6,9.374",27,0.113148064794472,4.06742936670825,2029.52525983858,3078.58456812221,5.82008818479447,0.280568173291754,"8,255,18","15,255,10"
e0020JA,SameDayRecall,13,"2023,7,14,12,6,21.691",25,-4.45553947930437,-2.44744142416862,3479.14062268603,3245.17865620828,-1.64080708930437,3.68650388416862,"222,6,255","9,244,255"
e0020JA,SameDayRecall,14,"2023,7,14,12,6,35.541",20,0.455980889836367,0.220880194263501,2378.84670142807,2012.18059193036,2.45751145983637,5.6031442157365,"255,7,105","255,6,226"
e0020JA,SameDayRecall,15,"2023,7,14,12,6,47.024",30,-0.0500622743273542,2.95291451545036,3179.18933097803,1695.27171807727,-2.83802103150694,0.834332834549643,"29,6,254","42,8,253"
e0020JA,SameDayRecall,16,"2023,7,14,12,6,59.19",12,-0.434008647662127,-3.05447679909553,2145.8542088393,1345.2250771752,-3.64545902484171,3.80184872909553,"152,6,255","255,7,254"
e0020JA,SameDayRecall,17,"2023,7,14,12,7,9.824",1,-3.16573034518971,1.92329616385105,1428.90686100714,1695.21776066779,0.565337474810289,3.01458909614895,"7,18,255","255,243,8"
e0020JA,SameDayRecall,18,"2023,7,14,12,7,20.357",28,-5.31235328635056,1.30506669434247,1262.31775811652,4511.91388397467,-2.68855934635056,3.67535441565753,"255,7,255","12,7,254"
e0020JA,SameDayRecall,19,"2023,7,14,12,7,33.407",10,-5.9290733835891,0.0518902766454337,1428.85730229966,1528.54830815659,-0.289429513589098,0.308587463354566,"9,254,31","51,255,10"
e0020JA,SameDayRecall,20,"2023,7,14,12,7,43.507",13,-0.514923822381196,0.298799077576178,1995.82093999084,1295.23910903424,-2.71522116956078,1.08314472242382,"6,103,255","17,6,255"
e0020JA,SameDayRecall,21,"2023,7,14,12,7,53.973",4,-0.35263515249281,1.69461193454672,1741.55016704799,5628.54311768842,0.48608234750719,3.84773971545328,"255,182,10","254,255,11"
e0020JA,SameDayRecall,22,"2023,7,14,12,8,8.473",16,2.44736686055519,-0.61212414484341,1712.22930022225,4728.30802173667,5.71734153055519,5.60482284484341,"91,6,255","9,255,17"
e0020JA,SameDayRecall,23,"2023,7,14,12,8,22.222",8,0.548748039337456,0.898647804327163,2562.42857607867,5078.49630083842,0.693329909337456,4.96045841567284,"178,255,9","254,220,11"
e0020JA,SameDayRecall,24,"2023,7,14,12,8,37.256",18,0.33662239233221,0.164531362574695,1612.21953510414,2628.59824808504,1.59143391233221,0.883244587425305,"255,66,11","255,7,13"
e0020JA,SameDayRecall,25,"2023,7,14,12,8,48.672",29,-2.63387618702546,-2.40478969604573,2045.7291977325,5228.56446605488,0.448838722974543,4.06475205604573,"147,6,254","250,255,10"
e0020JA,SameDayRecall,26,"2023,7,14,12,9,3.122",19,-5.88112984249741,-0.0348381393723518,1062.12286629989,1828.92568745115,-0.376102772497413,1.56759678937235,"8,255,59","30,255,9"
e0020JA,SameDayRecall,27,"2023,7,14,12,9,13.372",21,0.382071167966541,0.23610476930344,2262.69604647609,1228.53631436305,5.84995346796654,0.99148138069656,"10,255,70","20,255,9"
e0020JA,SameDayRecall,28,"2023,7,14,12,9,23.972",15,-0.121878595783016,-1.14828691445776,4479.23680763347,5511.88162682752,-3.7991008829626,5.69268968445776,"254,5,250","255,6,231"
e0020JA,SameDayRecall,29,"2023,7,14,12,9,41.222",6,-3.87742635429181,-1.28568006044349,1478.73300964739,4361.7392701733,0.561228645708195,5.57024745044349,"8,201,255","255,243,7"
e0020JA,SameDayRecall,30,"2023,7,14,12,9,54.171",23,-5.95698206581056,0.0852684070691301,1562.20482877757,1278.5454490006,-1.65854412581056,3.87380599293087,"9,166,255","8,242,255"
e0020JA,NextDayRecall,1,"2023,7,15,12,8,56.695",23,0.32970950777621,-0.0946039228725897,2249.46152873934,2222.95276085835,4.62814744777621,4.05367832287259,"9,166,255","8,243,255"
e0020JA,NextDayRecall,2,"2023,7,15,12,9,13.686",2,-0.642653789666498,-1.84943348945493,2997.14965791496,4929.63261964326,2.4459391703335,5.31765642945493,"147,6,255","255,6,222"
e0020JA,NextDayRecall,3,"2023,7,15,12,9,28.835",5,-4.69411172886311,-0.606903148441273,2346.21128835169,2996.58486790922,-2.28668910886311,4.91712486844127,"255,6,213","6,80,255"
e0020JA,NextDayRecall,4,"2023,7,15,12,9,41.367",21,-6.09061014591382,-4.03488816045595,2063.25032249627,1595.25758207123,-0.622727845913822,5.26247431045595,"10,255,70","11,255,25"
e0020JA,NextDayRecall,5,"2023,7,15,12,9,52.069",9,-0.0621450549769089,5.40471217831852,5115.73737792574,2878.75782561127,2.38899075502309,0.57229401168148,"255,6,224","255,6,210"
e0020JA,NextDayRecall,6,"2023,7,15,12,10,7.018",17,-1.28691342561469,-4.24250335135521,2245.34818013575,2745.03983294414,2.55674661438531,4.63269520135521,"6,41,255","254,6,243"
e0020JA,NextDayRecall,7,"2023,7,15,12,10,19.067",18,-6.13598626389907,-3.07480051504578,1829.42638038519,3862.16719250396,-4.88117474389907,4.12257646504578,"255,66,11","255,32,6"
e0020JA,NextDayRecall,8,"2023,7,15,12,10,31.883",25,0.312742575218296,-3.56888009220345,3929.46107127703,3679.01981075723,3.1274749652183,4.80794255220345,"222,6,255","133,6,255"
e0020JA,NextDayRecall,9,"2023,7,15,12,10,46.483",24,-5.69081019148269,0.981722818816856,2129.0993828071,2895.05198795231,0.548062788517308,4.01393037118314,"121,254,8","255,246,9"
e0020JA,NextDayRecall,10,"2023,7,15,12,10,58.433",7,-4.03267974740787,-0.378227646383573,7179.45659928972,2228.51444686502,-3.52078872740787,3.96421249638357,"254,252,11","232,7,255"
e0020JA,NextDayRecall,11,"2023,7,15,12,11,14.833",1,-3.08302709776424,4.5077517788322,2112.44980744061,1178.55487069798,0.648040722235757,0.430133481167795,"7,18,255","255,229,9"
e0020JA,NextDayRecall,12,"2023,7,15,12,11,25.1",4,-0.437567383017586,1.79314018932853,5762.09936491915,5278.49396369686,0.401150116982414,3.74921146067147,"255,182,10","240,255,9"
e0020JA,NextDayRecall,13,"2023,7,15,12,11,43.182",14,-1.01025904691835,-4.81500837113473,2245.82206416963,1728.96619089607,-3.60926594409793,5.79390005113473,"6,11,254","250,6,254"
e0020JA,NextDayRecall,14,"2023,7,15,12,11,54.166",19,-6.14290376043536,-0.0345152513843663,2028.94856686734,1278.54205588841,-0.637876690435359,1.56727390138437,"8,255,59","10,255,29"
e0020JA,NextDayRecall,15,"2023,7,15,12,12,4.833",12,-2.53312449431977,-4.03520463001062,2046.19489595225,1778.59850556447,0.538610435680232,4.78257656001062,"152,6,255","255,248,10"
e0020JA,NextDayRecall,16,"2023,7,15,12,12,15.699",6,-3.99949705696559,0.290713949094914,4245.36782755547,3645.17815664391,0.439157943034407,3.99385344090509,"8,201,255","247,255,8"
e0020JA,NextDayRecall,17,"2023,7,15,12,12,30.732",26,1.8301154900466,-0.114736758527824,7545.33554127323,895.282771822793,2.4992413000466,3.50516784852782,"255,225,11","255,5,234"
e0020JA,NextDayRecall,18,"2023,7,15,12,12,46.115",13,-2.47361729977374,0.466279045427426,2445.64189439834,1161.85221797374,1.60927066022626,0.915664754572574,"6,103,255","255,7,15"
e0020JA,NextDayRecall,19,"2023,7,15,12,12,56.749",3,-0.322924488031921,1.06930690843143,1812.39089450597,5211.86809719433,2.93260491196808,5.06846570156857,"95,6,254","192,5,254"
e0020JA,NextDayRecall,20,"2023,7,15,12,13,10.649",29,-0.512593189798191,-2.2377348254535,9511.49828583595,2195.07248578276,2.57012172020181,3.8976971854535,"147,6,254","254,6,246"
e0020JA,NextDayRecall,21,"2023,7,15,12,13,36.382",22,-5.69549857746992,-0.131384996932176,1995.71363680485,861.914415253181,-0.489757747469919,2.97598427693218,"9,255,143","11,255,10"
e0020JA,NextDayRecall,22,"2023,7,15,12,13,46.032",28,-0.195480372833337,4.95567817981511,4712.03246105631,1228.58189323125,2.42831356716666,0.0247429301848851,"255,7,255","254,6,221"
e0020JA,NextDayRecall,23,"2023,7,15,12,13,58.782",15,-2.91427596532306,-0.375657357882169,1461.67066995065,1461.85688057039,-0.308312945323058,4.92006012788217,"254,5,250","45,255,10"
e0020JA,NextDayRecall,24,"2023,7,15,12,14,8.698",20,0.619796871587972,2.09912621395282,3062.27410965664,1678.71073045296,2.62132744158797,3.72489819604718,"255,7,105","255,7,254"
e0020JA,NextDayRecall,25,"2023,7,15,12,14,20.498",30,-0.892206872887138,-1.79965131841652,5862.1718844251,1561.87778894389,-3.68016563006672,5.58689866841652,"29,6,254","254,6,249"
e0020JA,NextDayRecall,26,"2023,7,15,12,14,34.998",27,-3.20279611280873,-0.406931370120596,4895.69038247078,4061.83776099181,2.50414400719127,4.7549289101206,"8,255,18","255,6,236"
e0020JA,NextDayRecall,27,"2023,7,15,12,14,51.165",16,-0.806311093195028,4.2261348808731,1945.57488789974,1128.57476737605,2.46366357680497,0.766563819126902,"91,6,255","255,7,227"
e0020JA,NextDayRecall,28,"2023,7,15,12,15,1.231",11,-2.29064259011144,-0.459042452001673,3679.04092440233,1461.77389221543,2.54848678988856,5.08989814200167,"8,255,236","255,7,243"
e0020JA,NextDayRecall,29,"2023,7,15,12,15,13.481",8,2.66043874633645,1.13716079932134,3212.32467976904,1261.94907682054,2.80502061633645,4.72194542067867,"178,255,9","225,6,255"
e0020JA,NextDayRecall,30,"2023,7,15,12,15,25.031",10,-5.36317390608471,-0.222215515030356,1345.77054101072,1161.82699889771,0.27646996391529,0.582693255030356,"9,254,31","214,255,9"
e0024DV,Encoding,1,"2023,10,19,9,27,59.845",3,-0.337332562781196,-0.198995079369172,1615.32037232641,8955.87963611902,-2.46055960996078,3.53287632936917,"6,125,255","8,34,255"
e0024DV,Encoding,2,"2023,10,19,9,28,19.186",12,-0.0400022378125853,-0.0555757979098601,4546.50356027901,8861.6147907731,1.63711208218741,5.86077423790986,"255,8,27","254,7,17"
e0024DV,Encoding,3,"2023,10,19,9,28,41.402",24,-5.15131423347983,-0.24536299853576,6863.05960542222,7162.48373227262,0.153729396520172,0.63886310853576,"9,254,115","183,254,10"
e0024DV,Encoding,4,"2023,10,19,9,29,3.568",18,0.291504644973725,0.111956632456089,3629.35592409195,7895.24258047942,4.67960454497373,4.10867259754391,"5,191,255","7,250,255"
e0024DV,Encoding,5,"2023,10,19,9,29,25.536",15,-0.317254817499767,-0.0526493847546639,3148.74054507078,9245.68740275288,4.46931646250023,2.37437515475466,"9,255,248","8,208,255"
e0024DV,Encoding,6,"2023,10,19,9,29,46.001",13,-0.507039041774133,0.155230736675302,3329.11716458574,10194.9297474638,-1.67831005895372,4.2666015533247,"9,255,168","6,239,254"
e0024DV,Encoding,7,"2023,10,19,9,30,9.25",4,-0.0133592318237845,0.134026673530935,4112.05216464145,9078.84664672213,-1.57662183900337,5.35443122646907,"6,255,254","8,253,254"
e0024DV,Encoding,8,"2023,10,19,9,30,33.033",10,-6.22728288395863,0.230030225130283,2595.39119668892,10645.3641302404,-2.41514003395863,5.59712816486972,"7,33,255","6,46,255"
e0024DV,Encoding,9,"2023,10,19,9,30,53.967",26,0.0749255652368425,-0.0355948499348696,5095.37477500828,9612.17415426881,0.662966225236842,0.80051596993487,"253,240,8","255,225,9"
e0024DV,Encoding,10,"2023,10,19,9,31,19.815",27,-0.0984390967321707,-0.117180798038073,3645.4289372299,8978.40812920111,-1.95460151391176,2.89682933803807,"6,199,254","7,174,253"
e0024DV,Encoding,11,"2023,10,19,9,31,42.114",22,0.661577483174877,-0.136923886506853,6078.62612701115,7895.06634065725,0.740740043174877,3.07517076650685,"160,255,11","255,210,8"
e0024DV,Encoding,12,"2023,10,19,9,32,9.564",19,-5.55257490116585,0.176787039341585,6461.96210931794,9095.08065097884,-3.59585414116585,5.49130522065841,"254,6,91","246,6,254"
e0024DV,Encoding,13,"2023,10,19,9,32,44.062",17,-0.45407340710969,-0.405868983907907,2495.48872974196,7328.45472571978,3.66248962289031,3.63484571390791,"7,112,254","6,9,254"
e0024DV,Encoding,14,"2023,10,19,9,33,2.612",5,0.0172856448664197,-0.0303331491885066,7061.92263863557,9245.37978948581,1.00521774486642,4.94969794918851,"253,141,9","255,136,8"
e0024DV,Encoding,15,"2023,10,19,9,33,29.245",23,-6.13070712427174,-1.55000338824929,3179.67723186768,5228.47073685841,-2.16942653427174,2.60511180824929,"7,69,255","7,112,254"
e0024DV,Encoding,16,"2023,10,19,9,33,45.412",16,-0.0131684800443645,-0.29205175674838,2295.47764510755,9728.33877692494,2.69026547995564,2.52396963674838,"246,6,254","246,7,254"
e0024DV,Encoding,17,"2023,10,19,9,34,5.177",7,-5.96169712313489,-0.10234331756931,3528.09514956346,8428.29033296721,-3.67833184313489,4.80117399756931,"255,7,183","254,5,250"
e0024DV,Encoding,18,"2023,10,19,9,34,25.926",14,-0.880970398229679,-0.0869660797270306,2395.5167638967,7894.99566878169,3.68894463177032,4.19183010972703,"7,233,255","6,12,254"
e0024DV,Encoding,19,"2023,10,19,9,34,44.576",1,-5.92204296353992,-0.127720521862394,3745.51673457233,8511.43623432097,-2.53034747353992,3.16834300186239,"57,7,255","7,22,255"
e0024DV,Encoding,20,"2023,10,19,9,35,10.076",30,0.0483153443930244,0.111840326433554,4295.48673568081,8311.70490474551,2.49612602439302,4.56137622356645,"255,7,225","255,6,233"
e0024DV,Encoding,21,"2023,10,19,9,35,31.859",29,-6.25508511282373,0.019234114346296,3528.77137091127,9311.73862783953,-1.57197367282373,5.5136812456537,"7,251,255","8,253,254"
e0024DV,Encoding,22,"2023,10,19,9,35,52.725",21,0.0312945698721244,-0.226917909709876,7695.27372302366,7261.85425406561,0.951610459872124,3.80665049970988,"255,159,8","255,154,8"
e0024DV,Encoding,23,"2023,10,19,9,36,15.691",11,0.4442608045005,-0.16405749457113,2245.55397659788,7378.26901410688,3.9051902345005,0.35444676457113,"40,7,254","7,54,254"
e0024DV,Encoding,24,"2023,10,19,9,36,42.24",9,0.0450229308782666,0.0639223965702502,2295.95592655517,7411.81733460871,0.586580050878267,5.61037316342975,"255,247,10","253,240,8"
e0024DV,Encoding,25,"2023,10,19,9,37,0.522",28,-5.74584005881736,-0.20175507281316,1878.92852052971,6511.87463454426,-0.0228320288173579,2.61388801281316,"8,255,16","129,254,8"
e0024DV,Encoding,26,"2023,10,19,9,37,16.841",6,-0.209643263342204,0.0293910155946469,3745.26307825567,7245.03170850573,1.4462815066578,5.02346731440535,"254,6,19","255,22,9"
e0024DV,Encoding,27,"2023,10,19,9,37,36.225",8,-5.602703017564,-0.391012779059725,2062.22878568133,9561.3748582897,-0.138751467564002,2.61483173905973,"9,255,70","92,254,10"
e0024DV,Encoding,28,"2023,10,19,9,37,56.774",2,0.18386744459061,-6.05986489494777,7045.33703446737,7978.30314774285,1.08345710459061,6.11128862494777,"255,166,8","255,114,8"
e0024DV,Encoding,29,"2023,10,19,9,38,20.157",25,-1.32368106615797,-0.404432869228637,5678.77374619002,9295.04071110568,0.94410841384203,3.65167310922864,"255,7,181","254,153,9"
e0024DV,Encoding,30,"2023,10,19,9,38,44.973",20,-0.166269664953178,-0.0837647736884506,1428.83283491585,6928.36452377423,3.54749623504682,4.33226126368845,"6,15,254","22,6,255"
e0024DV,SameDayRecall,1,"2023,10,19,9,39,52.6",22,-2.14042994773916,-1.7206957046199,4349.087687669,3088.19498165178,-2.06126738773916,4.6589425846199,"160,255,11","6,144,255"
e0024DV,SameDayRecall,2,"2023,10,19,9,40,8.59",20,-1.9210907832346,-0.434735648365842,3264.58142602348,4629.34566054162,1.7926751167654,4.68323213836584,"6,15,254","255,6,50"
e0024DV,SameDayRecall,3,"2023,10,19,9,40,24.64",1,-1.83432245039348,-1.1645309196772,1946.55300126737,17613.1283712098,1.55737303960652,4.2051533996772,"57,7,255","253,7,6"
e0024DV,SameDayRecall,4,"2023,10,19,9,40,52.906",30,-0.445266683751285,3.50365077871929,4429.88411571889,2311.86970804015,2.00254399624871,1.16956577128071,"255,7,225","255,7,105"
e0024DV,SameDayRecall,5,"2023,10,19,9,41,15.723",12,-2.02491411988401,3.08908602448913,2865.20586042866,11111.3516040168,-0.347799799884011,2.71611241551087,"255,8,27","36,255,9"
e0024DV,SameDayRecall,6,"2023,10,19,9,41,42.655",27,-3.25033562475828,1.12403139712829,2696.01475136119,4028.35496401008,1.17668726524172,1.65561714287171,"6,199,254","255,86,10"
e0024DV,SameDayRecall,7,"2023,10,19,9,42,0.621",17,-0.0265617627279164,-0.803590473302261,3179.05056880613,2778.46390426635,-2.1931840399075,4.03256720330226,"7,112,254","8,103,254"
e0024DV,SameDayRecall,8,"2023,10,19,9,42,18.171",15,-2.80829610273858,-3.03226530996173,1978.97057176192,3112.12430273849,1.97827517726142,5.35399107996173,"9,255,248","253,6,97"
e0024DV,SameDayRecall,9,"2023,10,19,9,42,40.454",4,-1.93078905062825,1.16531944417752,6129.15710445895,1078.60442693323,-3.49405165780784,4.32313845582248,"6,255,254","227,7,255"
e0024DV,SameDayRecall,10,"2023,10,19,9,42,56.637",14,-4.45083178792111,-0.614753121437655,4462.06386508879,2978.639498951,0.119083242078894,4.71961715143765,"7,233,255","171,255,11"
e0024DV,SameDayRecall,11,"2023,10,19,9,43,17.119",23,-0.0271185006162309,-1.80184956115522,6328.92626254875,3511.93035096071,-2.34902321779582,2.85695798115522,"7,69,255","6,63,255"
e0024DV,SameDayRecall,12,"2023,10,19,9,43,45.285",21,-2.99764503479474,-0.625121381477408,778.837790744547,1445.22900326865,-2.07732914479474,4.20485397147741,"255,159,8","5,138,254"
e0024DV,SameDayRecall,13,"2023,10,19,9,44,4.619",10,-0.797674952393745,0.867748362924274,3812.31133395067,2245.42348288583,-3.26871740957333,4.95941002707573,"7,33,255","169,5,253"
e0024DV,SameDayRecall,14,"2023,10,19,9,44,18.935",26,-3.06232283009847,-1.94502384328323,3028.96579187973,678.589588771729,-2.47428217009847,2.70994496328323,"253,240,8","8,33,255"
e0024DV,SameDayRecall,15,"2023,10,19,9,44,30.852",24,-1.60357463204311,-4.34648211110833,2446.22632712117,5295.77030291557,-2.5817163092227,4.73998222110833,"9,254,115","5,14,255"
e0024DV,SameDayRecall,16,"2023,10,19,9,44,50.368",6,2.25905652892489,1.22338257093137,2762.25981092784,4678.54794808159,3.91498129892489,3.82947575906863,"254,6,19","7,58,255"
e0024DV,SameDayRecall,17,"2023,10,19,9,45,10.451",7,-0.0121196187836605,0.960326239543347,5228.76310142192,3178.50660063596,2.27124566121634,3.73850444045665,"255,7,183","254,6,183"
e0024DV,SameDayRecall,18,"2023,10,19,9,45,28.435",8,-4.1508740399667,-1.79156509513323,3512.28810900238,3311.8688283073,1.3130775100333,4.01538405513323,"9,255,70","255,52,9"
e0024DV,SameDayRecall,19,"2023,10,19,9,45,46.317",13,-5.64512389077027,0.671693516739716,995.770830755191,4778.70641729965,-0.533209600770274,3.75013877326028,"9,255,168","10,255,13"
e0024DV,SameDayRecall,20,"2023,10,19,9,46,0.651",18,-5.45299591043679,0.57769740785259,1595.42697249321,7111.7424986644,-1.06489601043679,3.64293182214741,"5,191,255","9,255,141"
e0024DV,SameDayRecall,21,"2023,10,19,9,46,17.65",11,-1.80007034506058,-4.24506743802966,1029.04643406146,6345.07112053939,1.66085908493942,4.43545670802966,"40,7,254","255,7,21"
e0024DV,SameDayRecall,22,"2023,10,19,9,46,43.434",16,-2.31730627349742,-1.95923921571196,3578.77744106804,1461.66387986818,-5.89705762067701,4.19115709571196,"246,6,254","237,255,9"
e0024DV,SameDayRecall,23,"2023,10,19,9,46,56.1",25,0.311863232477244,-1.47843653524003,1762.28854886904,2295.54362507429,2.57965271247724,4.72567677524003,"255,7,181","255,5,250"
e0024DV,SameDayRecall,24,"2023,10,19,9,47,11.883",28,-1.06795770571759,-2.20352889250528,3878.74201715704,2028.54088089407,-1.62813498289717,4.61566183250528,"8,255,16","8,246,255"
e0024DV,SameDayRecall,25,"2023,10,19,9,47,26.7",19,-3.52693160071577,1.12936531104878,2278.82782043821,1795.22164283662,-1.57021084071577,4.53872694895122,"254,6,91","6,255,254"
e0024DV,SameDayRecall,26,"2023,10,19,9,47,39.366",3,-0.408894618823441,0.833531807428618,2845.74822162017,3461.85918056995,3.75106364117656,2.50034944257138,"6,125,255","8,22,255"
e0024DV,SameDayRecall,27,"2023,10,19,9,47,55.683",9,0.895614622007712,1.73941403347609,4128.70785419659,3078.38889237519,1.43717174200771,3.93488152652391,"255,247,10","254,25,6"
e0024DV,SameDayRecall,28,"2023,10,19,9,48,13.399",29,-2.11512788818766,0.0705895580788969,5145.3521072242,5528.45584004808,-3.71520175536725,5.4623258019211,"7,251,255","254,6,246"
e0024DV,SameDayRecall,29,"2023,10,19,9,48,35.015",2,-4.64436783380317,-3.80906501268822,3212.03204808285,4228.52674651904,-3.74477817380317,3.86048874268822,"255,166,8","254,6,242"
e0024DV,SameDayRecall,30,"2023,10,19,9,48,50.299",5,-0.381827528884575,1.21293984963761,2978.91632156711,2528.53003085511,0.606104571115425,3.7064249503624,"253,141,9","254,238,8"
e0024DV,NextDayRecall,1,"2023,10,20,10,14,46.568",13,-1.54782023289824,1.17296859069643,1665.95163114607,156.395716590221,-2.71909125007783,3.24886369930357,"9,255,168","19,7,255"
e0024DV,NextDayRecall,2,"2023,10,20,10,14,59.794",27,-2.63553348067564,-2.43295464363128,2163.77470721422,13296.5513783079,1.79148940932436,5.21260318363128,"6,199,254","255,7,49"
e0024DV,NextDayRecall,3,"2023,10,20,10,15,23.375",16,0.663229429489205,-1.50234666029164,13313.1890769942,33246.203982479,3.3666633894892,3.73426454029164,"246,6,254","62,7,255"
e0024DV,NextDayRecall,4,"2023,10,20,10,16,35.48",22,-1.25640773223157,-1.7660548091137,4146.63555504596,7645.36535284877,-1.17724517223157,4.7043016891137,"160,255,11","9,255,170"
e0024DV,NextDayRecall,5,"2023,10,20,10,16,54.143",30,-0.9842839216175,0.051169318357891,5182.68155621837,3711.88271736176,1.4635267583825,4.62204723164211,"255,7,225","254,20,9"
e0024DV,NextDayRecall,6,"2023,10,20,10,17,12.974",29,-2.33407154850567,-0.135025120964421,695.931804672455,8662.19571524127,2.34903989149433,5.66794048096442,"7,251,255","255,6,198"
e0024DV,NextDayRecall,7,"2023,10,20,10,17,30.123",20,-5.9221218046504,0.401914154766616,4011.98092599984,795.081181213249,-2.2083559046504,3.84658233523338,"6,15,254","7,100,255"
e0024DV,NextDayRecall,8,"2023,10,20,10,17,43.189",1,-1.96996398396224,-1.36931712727428,6845.92768454297,2411.83054860477,-4.86145380114183,4.40993960727428,"57,7,255","254,26,8"
e0024DV,NextDayRecall,9,"2023,10,20,10,18,5.205",10,-1.51314070774064,3.15312122137918,1645.83190986036,3028.51716099911,2.29900214225936,2.67403716862082,"7,33,255","254,7,186"
e0024DV,NextDayRecall,10,"2023,10,20,10,18,17.689",18,-0.762728759853007,0.359703471219986,2428.95210591402,3045.38593883382,3.62537114014699,3.86092575878001,"5,191,255","10,5,254"
e0024DV,NextDayRecall,11,"2023,10,20,10,18,37.339",12,-3.62385388146696,0.59617895014953,7496.0457020598,3278.74332824939,-1.94673956146696,5.20901948985047,"255,8,27","7,175,254"
e0024DV,NextDayRecall,12,"2023,10,20,10,18,55.605",24,-4.1381392048909,-4.31259429266182,4379.37800413891,14511.7960333563,1.1669044251091,4.70609440266182,"9,254,115","255,90,9"
e0024DV,NextDayRecall,13,"2023,10,20,10,19,22.355",23,-0.604318452597663,-4.89819536143508,2878.84150756275,3478.73030805374,3.35696213740234,5.95330378143508,"7,69,255","68,6,255"
e0024DV,NextDayRecall,14,"2023,10,20,10,19,40.254",25,-5.24100131916901,-1.38214836838085,5045.53520188784,2561.93258412469,-2.97321183916901,4.62938860838085,"255,7,181","78,7,254"
e0024DV,NextDayRecall,15,"2023,10,20,10,19,55.404",4,-1.18830221150934,0.286617850457386,3912.22188759411,3929.19770082114,3.53162048849066,5.20184004954261,"6,255,254","27,5,254"
e0024DV,NextDayRecall,16,"2023,10,20,10,20,11.321",14,-1.15640367168629,-1.05373908336292,7628.87779695944,3261.9109131233,-2.86967394886588,5.15860311336292,"7,233,255","50,7,254"
e0024DV,NextDayRecall,17,"2023,10,20,10,20,32.521",8,-3.88873694471072,-1.88448961451067,9912.18904385721,8428.49082736012,-4.7079707018903,4.10830857451067,"9,255,70","253,7,10"
e0024DV,NextDayRecall,18,"2023,10,20,10,21,3.685",2,-5.88043662184991,-5.03077149436909,4312.5489173737,15811.7323692915,-4.98084696184991,5.08219522436909,"255,166,8","255,54,9"
e0024DV,NextDayRecall,19,"2023,10,20,10,21,31.235",21,2.50118652660371,-1.70004236155451,8895.90852080897,2478.22064363754,3.42150241660371,5.27977495155451,"255,159,8","50,6,255"
e0024DV,NextDayRecall,20,"2023,10,20,10,21,50.768",17,-0.108743959073943,-1.9534365323889,7246.12304612754,5461.93015016917,-2.27536623625353,5.1824132623889,"7,112,254","7,81,255"
e0024DV,NextDayRecall,21,"2023,10,20,10,22,11.585",3,-5.18859158454623,-1.82061407151665,3112.18687382461,3995.22299577694,-1.02863332454623,5.15449532151665,"6,125,255","9,253,128"
e0024DV,NextDayRecall,22,"2023,10,20,10,22,27.651",19,1.94653974735052,0.515899147847152,6845.46787222729,3928.38951029694,3.90326050735052,5.15219311215285,"254,6,91","7,54,254"
e0024DV,NextDayRecall,23,"2023,10,20,10,22,51.418",6,-3.65880799464339,0.207987531014526,8128.62516410871,3695.24619166606,-2.00288322464339,4.84487079898547,"254,6,19","9,158,255"
e0024DV,NextDayRecall,24,"2023,10,20,10,23,13.334",5,4.15610094890998,-0.0693552575283656,2345.79029801887,11711.6923996367,5.14403304890998,4.98872005752837,"253,141,9","9,254,159"
e0024DV,NextDayRecall,25,"2023,10,20,10,23,39.25",26,-3.70323385186267,-5.06432659198989,12462.2365939637,4261.64229827577,-3.11519319186267,5.82924771198989,"253,240,8","121,7,255"
e0024DV,NextDayRecall,26,"2023,10,20,10,24,4.45",15,-1.23333213923797,-0.311617041524902,10395.4327264964,5828.6627291327,3.55323914076203,2.6333428115249,"9,255,248","19,7,255"
e0024DV,NextDayRecall,27,"2023,10,20,10,24,29.617",11,0.290571857377141,-4.61827414679817,1895.55457089511,4145.34291940356,3.75150128737714,4.80866341679817,"40,7,254","7,22,255"
e0024DV,NextDayRecall,28,"2023,10,20,10,24,43.333",28,-1.79616937279367,-2.4953524245212,3012.24748811398,3545.13770469782,-2.35634664997326,4.9074853645212,"8,255,16","7,61,255"
e0024DV,NextDayRecall,29,"2023,10,20,10,25,2.299",9,-3.00586411666491,0.873690827276322,4862.1718448826,5244.98729797801,-2.46430699666491,4.80060473272368,"255,247,10","8,34,255"
e0024DV,NextDayRecall,30,"2023,10,20,10,25,21.082",7,-4.26553730363679,2.10655452976451,4979.01138592647,6311.79585740767,-1.98217202363679,2.59227615023549,"255,7,183","10,165,255"
e0013LW,Encoding,1,"2021,10,1,14,8,55.705",32,-0.116719521931039,-0.0189180423825968,8698.10654035197,14303.3975180251,4.66648807806896,2.5904026323826,"9,255,248","5,248,255"
e0013LW,Encoding,2,"2021,10,1,14,9,27.565",15,-5.70603309650968,0.112389949026712,4413.11489639474,8103.02609272963,0.212277503490317,0.899362840973288,"34,254,9","197,255,12"
e0013LW,Encoding,3,"2021,10,1,14,9,48.578",6,-5.42739824842277,-0.267065111396574,4044.69361225324,9147.52381670135,0.329955931577228,2.38002443139657,"9,254,9","226,254,12"
e0013LW,Encoding,4,"2021,10,1,14,10,10.373",1,0.696276223077986,0.117900942904067,4396.99634058405,8095.5908421642,5.07785419307799,3.87876148709593,"8,188,255","9,254,180"
e0013LW,Encoding,5,"2021,10,1,14,10,31.277",33,0.186963938393424,-0.31506566332463,3399.70681271879,7696.9218267931,0.217270488393424,5.61623653332463,"146,255,11","199,254,9"
e0013LW,Encoding,6,"2021,10,1,14,10,50.83",9,0.106252332286681,0.0456320662657008,3479.59345557192,7245.46297227624,3.54014663228668,4.4857397637343,"46,5,255","23,7,255"
e0013LW,Encoding,7,"2021,10,1,14,11,9.882",34,-0.0368949699229305,-0.151000076423695,3846.78691900283,6712.00463797763,0.78443174007707,0.511853996423695,"254,187,8","255,198,10"
e0013LW,Encoding,8,"2021,10,1,14,11,28.958",12,-6.0551049158253,0.0772235024791676,5296.39627143666,7395.42043695403,-4.1454214358253,4.39868427752083,"255,7,79","255,6,143"
e0013LW,Encoding,9,"2021,10,1,14,11,50.116",5,-6.1028299572897,-0.0189250320620591,3796.44245767065,6862.24479173234,-0.121050437289703,5.64284372206206,"47,255,11","98,254,10"
e0013LW,Encoding,10,"2021,10,1,14,12,9.233",7,-0.0520163028452449,-0.0942336177705743,4162.78228219818,7295.84614207124,1.90689060715476,5.32965696777057,"254,7,92","255,6,78"
e0013LW,Encoding,11,"2021,10,1,14,12,29.214",42,-0.0368880962121398,0.104601061434498,2596.47717798885,7878.73489013686,-2.46077287339173,3.8507071285655,"5,45,254","8,34,255"
e0013LW,Encoding,12,"2021,10,1,14,12,48.164",45,-6.23685962288826,0.121746656891519,2712.71165391585,7195.45427753439,-2.48143530288826,0.311306313108481,"7,22,255","9,31,255"
e0013LW,Encoding,13,"2021,10,1,14,13,6.463",10,0.121545990339253,-0.0134159896179868,3929.46057117854,7145.48634397687,1.13579993033925,5.67316349961799,"253,135,8","255,98,8"
e0013LW,Encoding,14,"2021,10,1,14,13,25.981",30,-0.0387426700270543,0.0185453250352028,4246.73155417117,7412.0046673022,-5.62003019720664,3.9205447449648,"253,216,9","255,225,9"
e0013LW,Encoding,15,"2021,10,1,14,13,46.114",11,-0.106049464306074,-0.0697307568084309,2246.19520736445,7295.33589415229,4.06432486569393,4.48658973680843,"6,127,255","6,98,254"
e0013LW,Encoding,16,"2021,10,1,14,14,4.047",19,0.0417516423274177,-0.071847340906515,11845.8409076313,6995.4171525996,0.437287792327418,3.35326319090652,"240,255,9","247,255,8"
e0013LW,Encoding,17,"2021,10,1,14,14,31.448",14,0.170357610327248,0.109584351675738,3246.11251201213,9895.34023419208,3.51016224032725,2.43747460832426,"69,7,254","28,6,255"
e0013LW,Encoding,18,"2021,10,1,14,14,53.03",13,-0.00920653848435737,-0.11380632786537,4230.13588723165,6862.09347683223,2.34148781151564,3.67629425786537,"255,6,201","255,7,200"
e0013LW,Encoding,19,"2021,10,1,14,15,12.446",21,0.318451260862638,-0.0181491875432762,4362.6141349817,7212.07076493494,2.58964155086264,4.38931681754328,"254,6,183","254,6,249"
e0013LW,Encoding,20,"2021,10,1,14,15,32.496",31,-0.512478005542135,-0.152735464992162,3563.06180421905,7128.6909765588,2.65369761445787,4.01522149499216,"121,6,254","251,7,253"
e0013LW,Encoding,21,"2021,10,1,14,15,51.63",17,-6.26055894435943,0.0268319525125529,2529.40098360546,6945.40992408747,-0.234686364359429,4.71222909748745,"59,255,11","65,255,10"
e0013LW,Encoding,22,"2021,10,1,14,16,9.579",35,0.249972027281815,-0.0348809424055609,1562.74333913859,7295.77605629379,4.07932955728181,4.71492274240556,"8,36,255","5,102,255"
e0013LW,Encoding,23,"2021,10,1,14,16,26.928",25,-6.18093071106408,0.0298992767169051,4312.84795462432,7678.69072729968,-1.77471586106408,1.83309045328309,"7,193,255","6,220,254"
e0013LW,Encoding,24,"2021,10,1,14,16,47.396",41,-3.32816902511088,0.107385623096428,8179.65653277156,10645.3287242894,-3.10310941511088,1.22386039690357,"203,255,7","117,7,255"
e0013LW,Encoding,25,"2021,10,1,14,17,14.647",18,-0.693809310624182,-0.883283544948205,4329.72865660815,8928.69490605426,3.54056817937582,2.31061590494821,"9,147,254","23,7,255"
e0013LW,Encoding,26,"2021,10,1,14,17,36.345",37,-0.458554686198269,0.347755648469197,3579.54633095085,7178.75832048674,-4.84297437337786,0.765488321530803,"254,7,77","254,24,8"
e0013LW,Encoding,27,"2021,10,1,14,17,55.563",2,-0.119405952820227,-0.518956169451719,5979.58363183329,7945.24013469379,-3.67700690999981,2.88225876945172,"240,7,255","254,5,250"
e0013LW,Encoding,28,"2021,10,1,14,18,17.878",3,-0.270770873076547,0.139927541577207,5313.27990587976,7412.11052908318,-0.286018260256133,5.34002924842279,"130,255,10","51,255,10"
e0013LW,Encoding,29,"2021,10,1,14,18,39.077",29,-0.0281373419056283,0.05596603745406,3379.37313990438,7745.32851901722,1.09933195809437,4.66678311254594,"255,101,7","254,109,10"
e0013LW,Encoding,30,"2021,10,1,14,18,58.612",26,1.37663733668399,-0.118711673305254,4363.43698306246,6978.76400945779,4.52486120668399,2.31057729330525,"127,6,254","6,223,255"
e0013LW,Encoding,31,"2021,10,1,14,19,18.411",38,-0.0898715885055159,0.10903471113032,3496.07798230375,6412.07094088247,2.29566896149448,1.08717804886968,"255,7,209","254,7,186"
e0013LW,Encoding,32,"2021,10,1,14,19,36.578",22,-0.0531468917180552,0.120618440287857,3879.60846976353,6995.38988072811,0.849354238281945,5.63403824971214,"255,166,9","255,179,11"
e0013LW,Encoding,33,"2021,10,1,14,19,55.977",20,0.0885316621762606,0.0299133963757465,4746.41558168116,6995.46465844037,2.57822665217626,1.53672977362425,"255,6,232","255,5,250"
e0013LW,Encoding,34,"2021,10,1,14,20,16.244",39,0.0410756823262909,0.372306314688562,4212.68687463475,6711.88470039215,0.969831572326291,0.387019765311438,"253,158,6","254,147,8"
e0013LW,Encoding,35,"2021,10,1,14,20,36.344",43,0.114816878162073,-0.0771989503622525,3346.11846490452,6745.34406105147,1.71846406816207,3.81167289036225,"255,7,15","255,7,31"
e0013LW,Encoding,36,"2021,10,1,14,20,54.896",23,0.154870547447051,0.0405289071767472,4279.09798724795,7462.04884480164,5.01856325744705,2.99013127282325,"7,255,231","8,255,194"
e0013LW,Encoding,37,"2021,10,1,14,21,15.059",27,-0.0410736800511233,0.0459107391811681,2879.31023865235,6878.52609903439,1.39564082994888,0.940098750818832,"254,25,6","255,34,7"
e0013LW,Encoding,38,"2021,10,1,14,21,33.492",24,-0.0945315682554249,-0.132351150798451,5396.37876465463,7178.67621162611,-1.26679064543501,4.06530119079845,"9,255,168","8,255,194"
e0013LW,Encoding,39,"2021,10,1,14,21,54.561",40,-0.0176259860420946,-0.0871961390426597,4346.2815096417,7528.8191836795,0.601703493957905,4.64176909904266,"254,234,10","253,239,8"
e0013LW,Encoding,40,"2021,10,1,14,22,14.926",28,-0.00834624440012277,0.0689670264358897,9996.33765157512,7028.77651639665,-3.96804222157971,4.26207842356411,"255,7,193","255,7,190"
e0013LW,Encoding,41,"2021,10,1,14,22,40.427",16,0.399287614220994,0.153136149989776,3446.10506356548,7561.86448108519,1.75912251422099,0.0269642200102245,"253,41,7","255,5,41"
e0013LW,Encoding,42,"2021,10,1,14,23,0.124",8,-0.198304586126861,-0.148841546475608,4629.51426450843,6728.74927384976,-3.50256502330645,2.72776736647561,"179,6,254","230,5,255"
e0013LW,Encoding,43,"2021,10,1,14,23,19.924",44,-0.357118550624555,0.120806739901613,2962.73753286914,7228.72596079833,1.18752104937544,0.632728010098387,"254,9,8","254,85,8"
e0013LW,Encoding,44,"2021,10,1,14,23,38.808",4,0.155694387226904,0.254271582209344,5079.39574916566,8295.3678579587,2.5274605372269,5.69561090779066,"255,6,207","255,7,239"
e0013LW,Encoding,45,"2021,10,1,14,24,0.869",36,-0.305690414559379,3.03972909756327,4195.99619601388,6695.42627254805,-1.63023357173897,2.28912154243673,"9,255,210","8,245,255"
e0013LW,SameDayRecall,1,"2021,10,1,14,25,32.004",11,-2.20331250922167,0.405916357488132,10613.5458506142,13027.3583790772,1.96706182077833,4.01094262251187,"6,127,255","254,6,94"
e0013LW,SameDayRecall,2,"2021,10,1,14,26,4.335",10,2.75212782689763,4.9212366305143,21579.6348912218,10015.2159448369,3.76638176689763,0.738510879485699,"253,135,8","7,26,254"
e0013LW,SameDayRecall,3,"2021,10,1,14,26,44.485",36,-3.90857557659388,4.64017663287976,8744.65639934465,1315.39567526761,1.05006657340612,0.688674007120241,"9,255,210","254,124,10"
e0013LW,SameDayRecall,4,"2021,10,1,14,27,2.857",32,-1.60940028015711,-1.21060850883178,10230.6666623658,9745.45901345618,3.17380731984289,3.78209309883178,"9,255,248","120,6,255"
